expName,key_resp_debrief.rt,Age *,key_resp_10.keys,__datetime,Highest level of education completed so far (e.g~ High school/grade (US); GCSE/Secondary School (UK); A-Levels; Bachelor's degree etc~) *,slider_2.response,tut_text,choose_blocks.thisN,consent_form.ran,date,slider_3.response,key_resp_consent.rt,consent_form.thisN,block_name.thisTrialN,tut_graph_image,block_name.thisN,intro_text,tutorial_loop.thisIndex,new_questionText,consent_number,OS,consent_form.thisIndex,choose_blocks.ran,key_resp_debrief.keys,tutorial_loop.thisTrialN,participant,frameRate,block_name.ran,choose_blocks.thisRepN,__experimentName,consent_form.thisTrialN,slider_3.rt,study_id,tutorial_loop.thisRepN,Gender *,slider_2.rt,blank_graph_image,consent_form.thisRepN,key_resp_10.rt,choose_blocks.thisTrialN,block_name.thisIndex,tutorial_loop.thisN,graph_image,psychopyVersion,tutorial_loop.ran,block_name.thisRepN,key_resp_done.rt,key_resp_done.keys,slider_1.rt,choose_blocks.thisIndex,key_resp_consent.keys,slider_1.response,block_file,time_taken
﻿U_graphs_1,NA,27,NA,2020-06-16_21h31.17.975,Bachelor's degree (Healthcare science),NA,NA,NA,1,2020-06-16_21h31.17.975,NA,3.0947550000273623,0,NA,NA,NA,NA,NA,I confirm that I have read the study description for this study and have had the opportunity to consider the information.,1 of 5,Win32,0,NA,NA,NA,1,60,NA,NA,U_graphs_1,0,NA,5ee91448dd71c9291b822a9d,NA,Male,NA,NA,0,NA,NA,NA,NA,NA,2020.1.2,NA,NA,NA,NA,NA,NA,y,NA,NA,13.684766666666667
﻿U_graphs_1,NA,27,NA,2020-06-16_21h31.17.975,Bachelor's degree (Healthcare science),NA,NA,NA,1,2020-06-16_21h31.17.975,NA,3.0906599999871105,1,NA,NA,NA,NA,NA,"I understand that my participation in the study is voluntary and that I am free to withdraw at any time without giving a reason and without detriment to myself, but I will not be paid for the study.  I understand that it will not be possible to remove my data from the project once it has been anonymised and forms part of the data set.  
I agree to take part on this basis.",2 of 5,Win32,1,NA,NA,NA,1,60,NA,NA,U_graphs_1,1,NA,5ee91448dd71c9291b822a9d,NA,Male,NA,NA,0,NA,NA,NA,NA,NA,2020.1.2,NA,NA,NA,NA,NA,NA,y,NA,NA,13.684766666666667
﻿U_graphs_1,NA,27,NA,2020-06-16_21h31.17.975,Bachelor's degree (Healthcare science),NA,NA,NA,1,2020-06-16_21h31.17.975,NA,1.8059099999954924,2,NA,NA,NA,NA,NA,"I understand that any data collected may be published in anonymous form in academic books, reports or journals. I understand that it will also be permanently stored in anonymous form in a public online repository, and may be used for future studies.",3 of 5,Win32,2,NA,NA,NA,1,60,NA,NA,U_graphs_1,2,NA,5ee91448dd71c9291b822a9d,NA,Male,NA,NA,0,NA,NA,NA,NA,NA,2020.1.2,NA,NA,NA,NA,NA,NA,y,NA,NA,13.684766666666667
﻿U_graphs_1,NA,27,NA,2020-06-16_21h31.17.975,Bachelor's degree (Healthcare science),NA,NA,NA,1,2020-06-16_21h31.17.975,NA,2.3971349999774247,3,NA,NA,NA,NA,NA,"I understand that data collected during the study may be looked at by individuals from The University of Manchester or regulatory authorities, where it is relevant to my taking part in this research. I give permission for these individuals to have access to my data.",4 of 5,Win32,3,NA,NA,NA,1,60,NA,NA,U_graphs_1,3,NA,5ee91448dd71c9291b822a9d,NA,Male,NA,NA,0,NA,NA,NA,NA,NA,2020.1.2,NA,NA,NA,NA,NA,NA,y,NA,NA,13.684766666666667
﻿U_graphs_1,NA,27,NA,2020-06-16_21h31.17.975,Bachelor's degree (Healthcare science),NA,NA,NA,1,2020-06-16_21h31.17.975,NA,0.5085850000032224,4,NA,NA,NA,NA,NA,I agree to take part in this study.,5 of 5,Win32,4,NA,NA,NA,1,60,NA,NA,U_graphs_1,4,NA,5ee91448dd71c9291b822a9d,NA,Male,NA,NA,0,NA,NA,NA,NA,NA,2020.1.2,NA,NA,NA,NA,NA,NA,y,NA,NA,13.684766666666667
﻿U_graphs_1,NA,27,NA,2020-06-16_21h31.17.975,Bachelor's degree (Healthcare science),NA,"This graph shows the average amount of 
 rainfall per day in Edinburgh for one month",NA,NA,2020-06-16_21h31.17.975,NA,NA,NA,NA,tutorial_and_prac_graphs/tut1.png,NA,NA,0,NA,NA,Win32,NA,NA,NA,0,1,60,NA,NA,U_graphs_1,NA,NA,5ee91448dd71c9291b822a9d,0,Male,NA,NA,NA,NA,NA,NA,0,NA,2020.1.2,1,NA,NA,NA,NA,NA,NA,NA,NA,13.684766666666667
﻿U_graphs_1,NA,27,NA,2020-06-16_21h31.17.975,Bachelor's degree (Healthcare science),NA,"The average amount of rainfall per day 
 was just over 5 mm",NA,NA,2020-06-16_21h31.17.975,NA,NA,NA,NA,tutorial_and_prac_graphs/tut1.png,NA,NA,1,NA,NA,Win32,NA,NA,NA,1,1,60,NA,NA,U_graphs_1,NA,NA,5ee91448dd71c9291b822a9d,0,Male,NA,NA,NA,NA,NA,NA,1,NA,2020.1.2,1,NA,NA,NA,NA,NA,NA,NA,NA,13.684766666666667
﻿U_graphs_1,NA,27,NA,2020-06-16_21h31.17.975,Bachelor's degree (Healthcare science),NA,"That average is calculated using the 
 rainfall from all 30 days in that month",NA,NA,2020-06-16_21h31.17.975,NA,NA,NA,NA,tutorial_and_prac_graphs/tut2.png,NA,NA,2,NA,NA,Win32,NA,NA,NA,2,1,60,NA,NA,U_graphs_1,NA,NA,5ee91448dd71c9291b822a9d,0,Male,NA,NA,NA,NA,NA,NA,2,NA,2020.1.2,1,NA,NA,NA,NA,NA,NA,NA,NA,13.684766666666667
﻿U_graphs_1,NA,27,NA,2020-06-16_21h31.17.975,Bachelor's degree (Healthcare science),NA,"That average is calculated using the 
 rainfall from all 30 days in that month",NA,NA,2020-06-16_21h31.17.975,NA,NA,NA,NA,tutorial_and_prac_graphs/tut3.png,NA,NA,3,NA,NA,Win32,NA,NA,NA,3,1,60,NA,NA,U_graphs_1,NA,NA,5ee91448dd71c9291b822a9d,0,Male,NA,NA,NA,NA,NA,NA,3,NA,2020.1.2,1,NA,NA,NA,NA,NA,NA,NA,NA,13.684766666666667
﻿U_graphs_1,NA,27,NA,2020-06-16_21h31.17.975,Bachelor's degree (Healthcare science),NA,"That average is calculated using the 
 rainfall from all 30 days in that month",NA,NA,2020-06-16_21h31.17.975,NA,NA,NA,NA,tutorial_and_prac_graphs/tut4.png,NA,NA,4,NA,NA,Win32,NA,NA,NA,4,1,60,NA,NA,U_graphs_1,NA,NA,5ee91448dd71c9291b822a9d,0,Male,NA,NA,NA,NA,NA,NA,4,NA,2020.1.2,1,NA,NA,NA,NA,NA,NA,NA,NA,13.684766666666667
﻿U_graphs_1,NA,27,NA,2020-06-16_21h31.17.975,Bachelor's degree (Healthcare science),NA,"That average is calculated using the 
 rainfall from all 30 days in that month",NA,NA,2020-06-16_21h31.17.975,NA,NA,NA,NA,tutorial_and_prac_graphs/tut5.png,NA,NA,5,NA,NA,Win32,NA,NA,NA,5,1,60,NA,NA,U_graphs_1,NA,NA,5ee91448dd71c9291b822a9d,0,Male,NA,NA,NA,NA,NA,NA,5,NA,2020.1.2,1,NA,NA,NA,NA,NA,NA,NA,NA,13.684766666666667
﻿U_graphs_1,NA,27,NA,2020-06-16_21h31.17.975,Bachelor's degree (Healthcare science),NA,"The red circle shows the average for 
 the whole month",NA,NA,2020-06-16_21h31.17.975,NA,NA,NA,NA,tutorial_and_prac_graphs/tut6.png,NA,NA,6,NA,NA,Win32,NA,NA,NA,6,1,60,NA,NA,U_graphs_1,NA,NA,5ee91448dd71c9291b822a9d,0,Male,NA,NA,NA,NA,NA,NA,6,NA,2020.1.2,1,NA,NA,NA,NA,NA,NA,NA,NA,13.684766666666667
﻿U_graphs_1,NA,27,NA,2020-06-16_21h31.17.975,Bachelor's degree (Healthcare science),0.4792566418008115,NA,NA,NA,2020-06-16_21h31.17.975,0.28458316974218045,NA,NA,0,NA,0,NA,NA,NA,NA,Win32,NA,NA,NA,NA,1,60,1,NA,U_graphs_1,NA,5.33587999996962,5ee91448dd71c9291b822a9d,NA,Male,6.4354549999698065,graphs/graph13b.png,NA,NA,NA,3,NA,graphs/graph13.png,2020.1.2,NA,0,3.0002199999871664,space,2.013875000004191,NA,NA,0.7246433712864809,NA,13.684766666666667
﻿U_graphs_1,NA,27,NA,2020-06-16_21h31.17.975,Bachelor's degree (Healthcare science),0.5217903415783276,NA,NA,NA,2020-06-16_21h31.17.975,0.5479649260567989,NA,NA,1,NA,1,NA,NA,NA,NA,Win32,NA,NA,NA,NA,1,60,1,NA,U_graphs_1,NA,3.003575000038836,5ee91448dd71c9291b822a9d,NA,Male,2.0277200000127777,graphs/graph16b.png,NA,NA,NA,6,NA,graphs/graph16.png,2020.1.2,NA,0,0.9923199999611825,space,1.1479099999996834,NA,NA,0.35656327705797675,NA,13.684766666666667
﻿U_graphs_1,NA,27,NA,2020-06-16_21h31.17.975,Bachelor's degree (Healthcare science),0.6444837063211623,NA,NA,NA,2020-06-16_21h31.17.975,0.6870174060986782,NA,NA,2,NA,2,NA,NA,NA,NA,Win32,NA,NA,NA,NA,1,60,1,NA,U_graphs_1,NA,2.9952899999916553,5ee91448dd71c9291b822a9d,NA,Male,1.8948199999867938,graphs/graph15b.png,NA,NA,NA,5,NA,graphs/graph15.png,2020.1.2,NA,0,0.8391650000121444,space,1.1038800000096671,NA,NA,0.5790472451249837,NA,13.684766666666667
﻿U_graphs_1,NA,27,NA,2020-06-16_21h31.17.975,Bachelor's degree (Healthcare science),0.7491820442350479,NA,NA,NA,2020-06-16_21h31.17.975,0.3729223923570214,NA,NA,3,NA,3,NA,NA,NA,NA,Win32,NA,NA,NA,NA,1,60,1,NA,U_graphs_1,NA,3.294999999983702,5ee91448dd71c9291b822a9d,NA,Male,2.076734999951441,graphs/graph12b.png,NA,NA,NA,2,NA,graphs/graph12.png,2020.1.2,NA,0,0.47153000003891066,space,1.030979999981355,NA,NA,0.6755660253893471,NA,13.684766666666667
﻿U_graphs_1,NA,27,NA,2020-06-16_21h31.17.975,Bachelor's degree (Healthcare science),0.39418924224577945,NA,NA,NA,2020-06-16_21h31.17.975,0.5855908912446015,NA,NA,4,NA,4,NA,NA,NA,NA,Win32,NA,NA,NA,NA,1,60,1,NA,U_graphs_1,NA,2.9771249999757856,5ee91448dd71c9291b822a9d,NA,Male,1.9413300000014715,graphs/graph14b.png,NA,NA,NA,4,NA,graphs/graph14.png,2020.1.2,NA,0,0.8860799999674782,space,1.1042949999682605,NA,NA,0.5774113335950792,NA,13.684766666666667
﻿U_graphs_1,NA,27,NA,2020-06-16_21h31.17.975,Bachelor's degree (Healthcare science),0.5119748723989008,NA,NA,NA,2020-06-16_21h31.17.975,0.3336605156393143,NA,NA,5,NA,5,NA,NA,NA,NA,Win32,NA,NA,NA,NA,1,60,1,NA,U_graphs_1,NA,3.7118650000193156,5ee91448dd71c9291b822a9d,NA,Male,2.4115250000031665,graphs/graph18b.png,NA,NA,NA,8,NA,graphs/graph18.png,2020.1.2,NA,0,0.4208850000286475,space,1.1530149999889545,NA,NA,0.5545085721764168,NA,13.684766666666667
﻿U_graphs_1,NA,27,NA,2020-06-16_21h31.17.975,Bachelor's degree (Healthcare science),0.6641146446800158,NA,NA,NA,2020-06-16_21h31.17.975,0.7017406098678185,NA,NA,6,NA,6,NA,NA,NA,NA,Win32,NA,NA,NA,NA,1,60,1,NA,U_graphs_1,NA,3.9311000000452623,5ee91448dd71c9291b822a9d,NA,Male,2.7794250000151806,graphs/graph10b.png,NA,NA,NA,0,NA,graphs/graph10.png,2020.1.2,NA,0,2.357669999997597,space,1.799189999990631,NA,NA,0.4040047114252062,NA,13.684766666666667
﻿U_graphs_1,NA,27,NA,2020-06-16_21h31.17.975,Bachelor's degree (Healthcare science),0.7197356366967675,NA,NA,NA,2020-06-16_21h31.17.975,0.523426253108232,NA,NA,7,NA,7,NA,NA,NA,NA,Win32,NA,NA,NA,NA,1,60,1,NA,U_graphs_1,NA,3.1408700000029057,5ee91448dd71c9291b822a9d,NA,Male,2.0483600000152364,graphs/graph17b.png,NA,NA,NA,7,NA,graphs/graph17.png,2020.1.2,NA,0,1.072855000034906,space,0.8864700000267476,NA,NA,0.4514461457924356,NA,13.684766666666667
﻿U_graphs_1,NA,27,NA,2020-06-16_21h31.17.975,Bachelor's degree (Healthcare science),0.654299175500589,NA,NA,NA,2020-06-16_21h31.17.975,0.6477555293809711,NA,NA,8,NA,8,NA,NA,NA,NA,Win32,NA,NA,NA,NA,1,60,1,NA,U_graphs_1,NA,4.924875000026077,5ee91448dd71c9291b822a9d,NA,Male,2.401740000001155,graphs/graph11b.png,NA,NA,NA,1,NA,graphs/graph11.png,2020.1.2,NA,0,0.6718349999864586,space,1.0048850000021048,NA,NA,0.43345111896348654,NA,13.684766666666667
﻿U_graphs_1,NA,27,NA,2020-06-16_21h31.17.975,Bachelor's degree (Healthcare science),NA,NA,0,NA,2020-06-16_21h31.17.975,NA,NA,NA,NA,NA,NA,The following graphs show how pupils' exam grades changed in one year. The data are taken from 24 pupils from each teacher's class.,NA,NA,NA,Win32,NA,1,NA,NA,1,60,NA,0,U_graphs_1,NA,NA,5ee91448dd71c9291b822a9d,NA,Male,NA,NA,NA,NA,0,NA,NA,NA,2020.1.2,NA,NA,NA,NA,NA,1,NA,NA,lists/teachers_block.csv,13.684766666666667
﻿U_graphs_1,NA,27,NA,2020-06-16_21h31.17.975,Bachelor's degree (Healthcare science),0.7720848056537104,NA,NA,NA,2020-06-16_21h31.17.975,0.4874361994503338,NA,NA,0,NA,0,NA,NA,NA,NA,Win32,NA,NA,NA,NA,1,60,1,NA,U_graphs_1,NA,3.3255800000042655,5ee91448dd71c9291b822a9d,NA,Male,2.079599999997299,graphs/graph66b.png,NA,NA,NA,2,NA,graphs/graph66.png,2020.1.2,NA,0,0.6762649999582209,space,1.1193299999576993,NA,NA,0.7835361863630416,NA,13.684766666666667
﻿U_graphs_1,NA,27,NA,2020-06-16_21h31.17.975,Bachelor's degree (Healthcare science),0.682109671508965,NA,NA,NA,2020-06-16_21h31.17.975,0.8211621515508443,NA,NA,1,NA,1,NA,NA,NA,NA,Win32,NA,NA,NA,NA,1,60,1,NA,U_graphs_1,NA,3.170204999973066,5ee91448dd71c9291b822a9d,NA,Male,2.1641299999901094,graphs/graph69b.png,NA,NA,NA,5,NA,graphs/graph69.png,2020.1.2,NA,0,0.4180250000208616,space,0.918805000022985,NA,NA,0.6493914409108756,NA,13.684766666666667
﻿U_graphs_1,NA,27,NA,2020-06-16_21h31.17.975,Bachelor's degree (Healthcare science),0.3712864808271169,NA,NA,NA,2020-06-16_21h31.17.975,0.36474283470749913,NA,NA,2,NA,2,NA,NA,NA,NA,Win32,NA,NA,NA,NA,1,60,1,NA,U_graphs_1,NA,3.102279999991879,5ee91448dd71c9291b822a9d,NA,Male,1.8272950000246055,graphs/graph67b.png,NA,NA,NA,3,NA,graphs/graph67.png,2020.1.2,NA,0,0.16341500001726672,space,0.8751200000406243,NA,NA,0.5594163067661302,NA,13.684766666666667
﻿U_graphs_1,NA,27,NA,2020-06-16_21h31.17.975,Bachelor's degree (Healthcare science),0.5430571914670855,NA,NA,NA,2020-06-16_21h31.17.975,0.5201544300484231,NA,NA,3,NA,3,NA,NA,NA,NA,Win32,NA,NA,NA,NA,1,60,1,NA,U_graphs_1,NA,3.559315000020433,5ee91448dd71c9291b822a9d,NA,Male,2.4193450000020675,graphs/graph70b.png,NA,NA,NA,6,NA,graphs/graph70.png,2020.1.2,NA,0,0.20475500001339242,space,1.1255349999992177,NA,NA,0.36474283470749913,NA,13.684766666666667
﻿U_graphs_1,NA,27,NA,2020-06-16_21h31.17.975,Bachelor's degree (Healthcare science),0.38600968459625706,NA,NA,NA,2020-06-16_21h31.17.975,0.24532129302447325,NA,NA,4,NA,4,NA,NA,NA,NA,Win32,NA,NA,NA,NA,1,60,1,NA,U_graphs_1,NA,3.027300000016112,5ee91448dd71c9291b822a9d,NA,Male,1.8022199999541044,graphs/graph72b.png,NA,NA,NA,8,NA,graphs/graph72.png,2020.1.2,NA,0,0.5008349999552593,space,0.7815149999805726,NA,NA,0.4449024996728178,NA,13.684766666666667
﻿U_graphs_1,NA,27,NA,2020-06-16_21h31.17.975,Bachelor's degree (Healthcare science),0.38600968459625706,NA,NA,NA,2020-06-16_21h31.17.975,0.4465384112027222,NA,NA,5,NA,5,NA,NA,NA,NA,Win32,NA,NA,NA,NA,1,60,1,NA,U_graphs_1,NA,3.9026799999992363,5ee91448dd71c9291b822a9d,NA,Male,2.525610000011511,graphs/graph64b.png,NA,NA,NA,0,NA,graphs/graph64.png,2020.1.2,NA,0,0.5613050000392832,space,1.0190350000048056,NA,NA,0.3074859311608429,NA,13.684766666666667
﻿U_graphs_1,NA,27,NA,2020-06-16_21h31.17.975,Bachelor's degree (Healthcare science),0.3025781965711295,NA,NA,NA,2020-06-16_21h31.17.975,0.4547179688522446,NA,NA,6,NA,6,NA,NA,NA,NA,Win32,NA,NA,NA,NA,1,60,1,NA,U_graphs_1,NA,3.896245000010822,5ee91448dd71c9291b822a9d,NA,Male,2.6701450000400655,graphs/graph68b.png,NA,NA,NA,4,NA,graphs/graph68.png,2020.1.2,NA,0,0.8229350000037812,space,1.0692649999982677,NA,NA,0.49397984556995167,NA,13.684766666666667
﻿U_graphs_1,NA,27,NA,2020-06-16_21h31.17.975,Bachelor's degree (Healthcare science),0.4481743227326267,NA,NA,NA,2020-06-16_21h31.17.975,0.19133621253762612,NA,NA,7,NA,7,NA,NA,NA,NA,Win32,NA,NA,NA,NA,1,60,1,NA,U_graphs_1,NA,3.444484999985434,5ee91448dd71c9291b822a9d,NA,Male,2.1857749999617226,graphs/graph65b.png,NA,NA,NA,1,NA,graphs/graph65.png,2020.1.2,NA,0,0.5067350000026636,space,1.1243399999802932,NA,NA,0.24204946996466437,NA,13.684766666666667
﻿U_graphs_1,NA,27,NA,2020-06-16_21h31.17.975,Bachelor's degree (Healthcare science),0.32875278104960093,NA,NA,NA,2020-06-16_21h31.17.975,0.21914670854600193,NA,NA,8,NA,8,NA,NA,NA,NA,Win32,NA,NA,NA,NA,1,60,1,NA,U_graphs_1,NA,3.826954999996815,5ee91448dd71c9291b822a9d,NA,Male,2.2410149999777786,graphs/graph71b.png,NA,NA,NA,7,NA,graphs/graph71.png,2020.1.2,NA,0,0.4438300000037998,space,1.0116249999846332,NA,NA,0.2698599659730403,NA,13.684766666666667
﻿U_graphs_1,NA,27,NA,2020-06-16_21h31.17.975,Bachelor's degree (Healthcare science),NA,NA,1,NA,2020-06-16_21h31.17.975,NA,NA,NA,NA,NA,NA,The following graphs show how much money different companies invest in sustainability. The data are taken from 24 companies from each country.,NA,NA,NA,Win32,NA,1,NA,NA,1,60,NA,0,U_graphs_1,NA,NA,5ee91448dd71c9291b822a9d,NA,Male,NA,NA,NA,NA,1,NA,NA,NA,2020.1.2,NA,NA,NA,NA,NA,7,NA,NA,lists/expenditure_block.csv,13.684766666666667
﻿U_graphs_1,NA,27,NA,2020-06-16_21h31.17.975,Bachelor's degree (Healthcare science),0.3058500196309384,NA,NA,NA,2020-06-16_21h31.17.975,0.27803952362256257,NA,NA,0,NA,0,NA,NA,NA,NA,Win32,NA,NA,NA,NA,1,60,1,NA,U_graphs_1,NA,3.1525600000168197,5ee91448dd71c9291b822a9d,NA,Male,2.1361500000348315,graphs/graph61b.png,NA,NA,NA,6,NA,graphs/graph61.png,2020.1.2,NA,0,0.442975000012666,space,1.1360449999920093,NA,NA,0.7066483444575318,NA,13.684766666666667
﻿U_graphs_1,NA,27,NA,2020-06-16_21h31.17.975,Bachelor's degree (Healthcare science),0.6510273524407801,NA,NA,NA,2020-06-16_21h31.17.975,0.43181520743358204,NA,NA,1,NA,1,NA,NA,NA,NA,Win32,NA,NA,NA,NA,1,60,1,NA,U_graphs_1,NA,2.869315000018105,5ee91448dd71c9291b822a9d,NA,Male,1.7402799999690615,graphs/graph59b.png,NA,NA,NA,4,NA,graphs/graph59.png,2020.1.2,NA,0,1.0132500000181608,space,0.840459999977611,NA,NA,0.4105483575448241,NA,13.684766666666667
﻿U_graphs_1,NA,27,NA,2020-06-16_21h31.17.975,Bachelor's degree (Healthcare science),0.5921345373642195,NA,NA,NA,2020-06-16_21h31.17.975,0.413820180604633,NA,NA,2,NA,2,NA,NA,NA,NA,Win32,NA,NA,NA,NA,1,60,1,NA,U_graphs_1,NA,4.102914999995846,5ee91448dd71c9291b822a9d,NA,Male,3.1283800000092015,graphs/graph60b.png,NA,NA,NA,5,NA,graphs/graph60.png,2020.1.2,NA,0,0.3760500000207685,space,1.2863300000317395,NA,NA,0.6232168564324042,NA,13.684766666666667
﻿U_graphs_1,NA,27,NA,2020-06-16_21h31.17.975,Bachelor's degree (Healthcare science),0.22241853160581082,NA,NA,NA,2020-06-16_21h31.17.975,0.2682240544431358,NA,NA,3,NA,3,NA,NA,NA,NA,Win32,NA,NA,NA,NA,1,60,1,NA,U_graphs_1,NA,3.5418550000176765,5ee91448dd71c9291b822a9d,NA,Male,2.473569999972824,graphs/graph58b.png,NA,NA,NA,3,NA,graphs/graph58.png,2020.1.2,NA,0,0.14659499999834225,space,1.2699500000453554,NA,NA,0.1995157701871484,NA,13.684766666666667
﻿U_graphs_1,NA,27,NA,2020-06-16_21h31.17.975,Bachelor's degree (Healthcare science),0.5954063604240283,NA,NA,NA,2020-06-16_21h31.17.975,0.7900798324826594,NA,NA,4,NA,4,NA,NA,NA,NA,Win32,NA,NA,NA,NA,1,60,1,NA,U_graphs_1,NA,4.475800000014715,5ee91448dd71c9291b822a9d,NA,Male,2.098004999978002,graphs/graph63b.png,NA,NA,NA,8,NA,graphs/graph63.png,2020.1.2,NA,0,1.568485000054352,space,1.3032400000374764,NA,NA,0.5512367491166079,NA,13.684766666666667
﻿U_graphs_1,NA,27,NA,2020-06-16_21h31.17.975,Bachelor's degree (Healthcare science),0.39582515377568384,NA,NA,NA,2020-06-16_21h31.17.975,0.6379400602015444,NA,NA,5,NA,5,NA,NA,NA,NA,Win32,NA,NA,NA,NA,1,60,1,NA,U_graphs_1,NA,4.9552549999789335,5ee91448dd71c9291b822a9d,NA,Male,2.4073649999918416,graphs/graph56b.png,NA,NA,NA,1,NA,graphs/graph56.png,2020.1.2,NA,0,1.7738200000021607,space,1.1575450000236742,NA,NA,0.5806831566548882,NA,13.684766666666667
﻿U_graphs_1,NA,27,NA,2020-06-16_21h31.17.975,Bachelor's degree (Healthcare science),0.7344588404659077,NA,NA,NA,2020-06-16_21h31.17.975,0.7720848056537104,NA,NA,6,NA,6,NA,NA,NA,NA,Win32,NA,NA,NA,NA,1,60,1,NA,U_graphs_1,NA,4.0939999999827705,5ee91448dd71c9291b822a9d,NA,Male,3.145665000018198,graphs/graph55b.png,NA,NA,NA,0,NA,graphs/graph55.png,2020.1.2,NA,0,0.8737100000143982,space,1.0297600000048988,NA,NA,0.7524538672948569,NA,13.684766666666667
﻿U_graphs_1,NA,27,NA,2020-06-16_21h31.17.975,Bachelor's degree (Healthcare science),0.24368538149456886,NA,NA,NA,2020-06-16_21h31.17.975,0.28621908127208484,NA,NA,7,NA,7,NA,NA,NA,NA,Win32,NA,NA,NA,NA,1,60,1,NA,U_graphs_1,NA,4.815875000029337,5ee91448dd71c9291b822a9d,NA,Male,2.1119899999466725,graphs/graph62b.png,NA,NA,NA,7,NA,graphs/graph62.png,2020.1.2,NA,0,1.4710249999770895,space,1.2097300000023097,NA,NA,0.2240544431357152,NA,13.684766666666667
﻿U_graphs_1,NA,27,NA,2020-06-16_21h31.17.975,Bachelor's degree (Healthcare science),0.25186493914409114,NA,NA,NA,2020-06-16_21h31.17.975,0.36474283470749913,NA,NA,8,NA,8,NA,NA,NA,NA,Win32,NA,NA,NA,NA,1,60,1,NA,U_graphs_1,NA,5.763764999981504,5ee91448dd71c9291b822a9d,NA,Male,3.920415000000503,graphs/graph57b.png,NA,NA,NA,2,NA,graphs/graph57.png,2020.1.2,NA,0,1.1452549999812618,space,1.236635000037495,NA,NA,0.24041355843475998,NA,13.684766666666667
﻿U_graphs_1,NA,27,NA,2020-06-16_21h31.17.975,Bachelor's degree (Healthcare science),NA,NA,2,NA,2020-06-16_21h31.17.975,NA,NA,NA,NA,NA,NA,The following graphs show the average trip length for 24 taxi drivers in various cities.,NA,NA,NA,Win32,NA,1,NA,NA,1,60,NA,0,U_graphs_1,NA,NA,5ee91448dd71c9291b822a9d,NA,Male,NA,NA,NA,NA,2,NA,NA,NA,2020.1.2,NA,NA,NA,NA,NA,6,NA,NA,lists/taxi_block.csv,13.684766666666667
﻿U_graphs_1,NA,27,NA,2020-06-16_21h31.17.975,Bachelor's degree (Healthcare science),0.6690223792697292,NA,NA,NA,2020-06-16_21h31.17.975,0.7508179557649524,NA,NA,0,NA,0,NA,NA,NA,NA,Win32,NA,NA,NA,NA,1,60,1,NA,U_graphs_1,NA,4.426549999974668,5ee91448dd71c9291b822a9d,NA,Male,2.1694900000002235,graphs/graph39b.png,NA,NA,NA,2,NA,graphs/graph39.png,2020.1.2,NA,0,1.675890000013169,space,1.0886649999883957,NA,NA,0.6428477947912578,NA,13.684766666666667
﻿U_graphs_1,NA,27,NA,2020-06-16_21h31.17.975,Bachelor's degree (Healthcare science),0.6608428216202069,NA,NA,NA,2020-06-16_21h31.17.975,0.7769925402434237,NA,NA,1,NA,1,NA,NA,NA,NA,Win32,NA,NA,NA,NA,1,60,1,NA,U_graphs_1,NA,3.559099999954924,5ee91448dd71c9291b822a9d,NA,Male,5.147934999957215,graphs/graph38b.png,NA,NA,NA,1,NA,graphs/graph38.png,2020.1.2,NA,0,2.962279999977909,space,0.8533900000038557,NA,NA,0.7819002748331372,NA,13.684766666666667
﻿U_graphs_1,NA,27,NA,2020-06-16_21h31.17.975,Bachelor's degree (Healthcare science),0.3778301269467348,NA,NA,NA,2020-06-16_21h31.17.975,0.5545085721764168,NA,NA,2,NA,2,NA,NA,NA,NA,Win32,NA,NA,NA,NA,1,60,1,NA,U_graphs_1,NA,3.6861749999807216,5ee91448dd71c9291b822a9d,NA,Male,2.486220000020694,graphs/graph45b.png,NA,NA,NA,8,NA,graphs/graph45.png,2020.1.2,NA,0,0.4180250000208616,space,0.7389100000145845,NA,NA,0.35819918858788125,NA,13.684766666666667
﻿U_graphs_1,NA,27,NA,2020-06-16_21h31.17.975,Bachelor's degree (Healthcare science),0.6363041486716399,NA,NA,NA,2020-06-16_21h31.17.975,0.6395759717314489,NA,NA,3,NA,3,NA,NA,NA,NA,Win32,NA,NA,NA,NA,1,60,1,NA,U_graphs_1,NA,3.5452449999866076,5ee91448dd71c9291b822a9d,NA,Male,2.3995149999973364,graphs/graph37b.png,NA,NA,NA,0,NA,graphs/graph37.png,2020.1.2,NA,0,0.39100000000325963,space,1.5417849999503233,NA,NA,0.7344588404659077,NA,13.684766666666667
﻿U_graphs_1,NA,27,NA,2020-06-16_21h31.17.975,Bachelor's degree (Healthcare science),0.682109671508965,NA,NA,NA,2020-06-16_21h31.17.975,0.5316058107577544,NA,NA,4,NA,4,NA,NA,NA,NA,Win32,NA,NA,NA,NA,1,60,1,NA,U_graphs_1,NA,4.012820000003558,5ee91448dd71c9291b822a9d,NA,Male,2.6852149999467656,graphs/graph41b.png,NA,NA,NA,4,NA,graphs/graph41.png,2020.1.2,NA,0,0.726569999998901,space,0.9748600000166334,NA,NA,0.5365135453474676,NA,13.684766666666667
﻿U_graphs_1,NA,27,NA,2020-06-16_21h31.17.975,Bachelor's degree (Healthcare science),0.21587488548619294,NA,NA,NA,2020-06-16_21h31.17.975,0.4023687998953017,NA,NA,5,NA,5,NA,NA,NA,NA,Win32,NA,NA,NA,NA,1,60,1,NA,U_graphs_1,NA,3.2532399999909103,5ee91448dd71c9291b822a9d,NA,Male,2.262575000000652,graphs/graph44b.png,NA,NA,NA,7,NA,graphs/graph44.png,2020.1.2,NA,0,0.42943499999819323,space,1.2265849999967031,NA,NA,0.4121842690747285,NA,13.684766666666667
﻿U_graphs_1,NA,27,NA,2020-06-16_21h31.17.975,Bachelor's degree (Healthcare science),0.480892553330716,NA,NA,NA,2020-06-16_21h31.17.975,0.4792566418008115,NA,NA,6,NA,6,NA,NA,NA,NA,Win32,NA,NA,NA,NA,1,60,1,NA,U_graphs_1,NA,3.6885550000006333,5ee91448dd71c9291b822a9d,NA,Male,2.1827899999916553,graphs/graph43b.png,NA,NA,NA,6,NA,graphs/graph43.png,2020.1.2,NA,0,0.4008200000389479,space,1.2819599999929778,NA,NA,0.7197356366967675,NA,13.684766666666667
﻿U_graphs_1,NA,27,NA,2020-06-16_21h31.17.975,Bachelor's degree (Healthcare science),0.6248527679623087,NA,NA,NA,2020-06-16_21h31.17.975,0.6232168564324042,NA,NA,7,NA,7,NA,NA,NA,NA,Win32,NA,NA,NA,NA,1,60,1,NA,U_graphs_1,NA,2.9491449999623,5ee91448dd71c9291b822a9d,NA,Male,4.5025299999979325,graphs/graph40b.png,NA,NA,NA,3,NA,graphs/graph40.png,2020.1.2,NA,0,1.977580000006128,space,0.9773750000167638,NA,NA,0.3336605156393143,NA,13.684766666666667
﻿U_graphs_1,NA,27,NA,2020-06-16_21h31.17.975,Bachelor's degree (Healthcare science),0.8260698861405575,NA,NA,NA,2020-06-16_21h31.17.975,0.7262792828163853,NA,NA,8,NA,8,NA,NA,NA,NA,Win32,NA,NA,NA,NA,1,60,1,NA,U_graphs_1,NA,4.635444999963511,5ee91448dd71c9291b822a9d,NA,Male,2.289025000005495,graphs/graph42b.png,NA,NA,NA,5,NA,graphs/graph42.png,2020.1.2,NA,0,1.4509299999917857,space,0.875289999996312,NA,NA,0.7982593901321817,NA,13.684766666666667
﻿U_graphs_1,NA,27,NA,2020-06-16_21h31.17.975,Bachelor's degree (Healthcare science),NA,NA,3,NA,2020-06-16_21h31.17.975,NA,NA,NA,NA,NA,NA,The following graphs show teachers' performance. 24 pupils in each teacher's class were asked to rate their lesson out of 100.,NA,NA,NA,Win32,NA,1,NA,NA,1,60,NA,0,U_graphs_1,NA,NA,5ee91448dd71c9291b822a9d,NA,Male,NA,NA,NA,NA,3,NA,NA,NA,2020.1.2,NA,NA,NA,NA,NA,4,NA,NA,lists/teachers2_block.csv,13.684766666666667
﻿U_graphs_1,NA,27,NA,2020-06-16_21h31.17.975,Bachelor's degree (Healthcare science),0.7622693364742836,NA,NA,NA,2020-06-16_21h31.17.975,0.788443920952755,NA,NA,0,NA,0,NA,NA,NA,NA,Win32,NA,NA,NA,NA,1,60,1,NA,U_graphs_1,NA,4.5068999999784864,5ee91448dd71c9291b822a9d,NA,Male,3.5270849999506027,graphs/graph46b.png,NA,NA,NA,0,NA,graphs/graph46.png,2020.1.2,NA,0,0.8009249999886379,space,2.662850000022445,NA,NA,0.5430571914670855,NA,13.684766666666667
﻿U_graphs_1,NA,27,NA,2020-06-16_21h31.17.975,Bachelor's degree (Healthcare science),0.46944117262138474,NA,NA,NA,2020-06-16_21h31.17.975,0.4105483575448241,NA,NA,1,NA,1,NA,NA,NA,NA,Win32,NA,NA,NA,NA,1,60,1,NA,U_graphs_1,NA,3.6634950000443496,5ee91448dd71c9291b822a9d,NA,Male,2.1863499999744818,graphs/graph49b.png,NA,NA,NA,3,NA,graphs/graph49.png,2020.1.2,NA,0,0.9676500000059605,space,0.8813300000037998,NA,NA,0.5119748723989008,NA,13.684766666666667
﻿U_graphs_1,NA,27,NA,2020-06-16_21h31.17.975,Bachelor's degree (Healthcare science),0.6019500065436463,NA,NA,NA,2020-06-16_21h31.17.975,0.28949090433189384,NA,NA,2,NA,2,NA,NA,NA,NA,Win32,NA,NA,NA,NA,1,60,1,NA,U_graphs_1,NA,2.559010000026319,5ee91448dd71c9291b822a9d,NA,Male,1.6647050000028685,graphs/graph48b.png,NA,NA,NA,2,NA,graphs/graph48.png,2020.1.2,NA,0,0.46298499999102205,space,0.7891299999901094,NA,NA,0.6199450333725953,NA,13.684766666666667
﻿U_graphs_1,NA,27,NA,2020-06-16_21h31.17.975,Bachelor's degree (Healthcare science),0.7589975134144746,NA,NA,NA,2020-06-16_21h31.17.975,0.7606334249443791,NA,NA,3,NA,3,NA,NA,NA,NA,Win32,NA,NA,NA,NA,1,60,1,NA,U_graphs_1,NA,3.1512499999953434,5ee91448dd71c9291b822a9d,NA,Male,2.18722500000149,graphs/graph52b.png,NA,NA,NA,6,NA,graphs/graph52.png,2020.1.2,NA,0,0.26229000004241243,space,0.9346149999764748,NA,NA,0.21751079701609743,NA,13.684766666666667
﻿U_graphs_1,NA,27,NA,2020-06-16_21h31.17.975,Bachelor's degree (Healthcare science),0.22078262007590643,NA,NA,NA,2020-06-16_21h31.17.975,0.6183091218426908,NA,NA,4,NA,4,NA,NA,NA,NA,Win32,NA,NA,NA,NA,1,60,1,NA,U_graphs_1,NA,5.505644999968354,5ee91448dd71c9291b822a9d,NA,Male,3.502570000011474,graphs/graph50b.png,NA,NA,NA,4,NA,graphs/graph50.png,2020.1.2,NA,0,1.34257500001695,space,0.8934649999719113,NA,NA,0.611765475723073,NA,13.684766666666667
﻿U_graphs_1,NA,27,NA,2020-06-16_21h31.17.975,Bachelor's degree (Healthcare science),0.6313964140819266,NA,NA,NA,2020-06-16_21h31.17.975,0.21423897395628844,NA,NA,5,NA,5,NA,NA,NA,NA,Win32,NA,NA,NA,NA,1,60,1,NA,U_graphs_1,NA,2.449125000042841,5ee91448dd71c9291b822a9d,NA,Male,1.499164999986533,graphs/graph53b.png,NA,NA,NA,7,NA,graphs/graph53.png,2020.1.2,NA,0,0.1676599999773316,space,0.755109999969136,NA,NA,0.2289621777254287,NA,13.684766666666667
﻿U_graphs_1,NA,27,NA,2020-06-16_21h31.17.975,Bachelor's degree (Healthcare science),0.6657505562099203,NA,NA,NA,2020-06-16_21h31.17.975,0.32384504645988754,NA,NA,6,NA,6,NA,NA,NA,NA,Win32,NA,NA,NA,NA,1,60,1,NA,U_graphs_1,NA,4.784950000001118,5ee91448dd71c9291b822a9d,NA,Male,2.375065000029281,graphs/graph47b.png,NA,NA,NA,1,NA,graphs/graph47.png,2020.1.2,NA,0,1.6105800000368617,space,1.1314899999997579,NA,NA,0.36147101164769013,NA,13.684766666666667
﻿U_graphs_1,NA,27,NA,2020-06-16_21h31.17.975,Bachelor's degree (Healthcare science),0.4514461457924356,NA,NA,NA,2020-06-16_21h31.17.975,0.35983510011778574,NA,NA,7,NA,7,NA,NA,NA,NA,Win32,NA,NA,NA,NA,1,60,1,NA,U_graphs_1,NA,2.77247999998508,5ee91448dd71c9291b822a9d,NA,Male,1.6529300000402145,graphs/graph54b.png,NA,NA,NA,8,NA,graphs/graph54.png,2020.1.2,NA,0,0.8010050000157207,space,0.6285399999469519,NA,NA,0.4023687998953017,NA,13.684766666666667
﻿U_graphs_1,NA,27,NA,2020-06-16_21h31.17.975,Bachelor's degree (Healthcare science),0.3843737730663527,NA,NA,NA,2020-06-16_21h31.17.975,0.24695720455437775,NA,NA,8,NA,8,NA,NA,NA,NA,Win32,NA,NA,NA,NA,1,60,1,NA,U_graphs_1,NA,2.7820550000178628,5ee91448dd71c9291b822a9d,NA,Male,1.6957700000493787,graphs/graph51b.png,NA,NA,NA,5,NA,graphs/graph51.png,2020.1.2,NA,0,0.2895600000047125,space,0.8541500000283122,NA,NA,0.4040047114252062,NA,13.684766666666667
﻿U_graphs_1,NA,27,NA,2020-06-16_21h31.17.975,Bachelor's degree (Healthcare science),NA,NA,4,NA,2020-06-16_21h31.17.975,NA,NA,NA,NA,NA,NA,"The following graphs show the proportion of delayed trains arriving into English train stations each month, over a 24 month period.",NA,NA,NA,Win32,NA,1,NA,NA,1,60,NA,0,U_graphs_1,NA,NA,5ee91448dd71c9291b822a9d,NA,Male,NA,NA,NA,NA,4,NA,NA,NA,2020.1.2,NA,NA,NA,NA,NA,5,NA,NA,lists/trains_block.csv,13.684766666666667
﻿U_graphs_1,NA,27,NA,2020-06-16_21h31.17.975,Bachelor's degree (Healthcare science),0.3385682502290277,NA,NA,NA,2020-06-16_21h31.17.975,0.4383588535531999,NA,NA,0,NA,0,NA,NA,NA,NA,Win32,NA,NA,NA,NA,1,60,1,NA,U_graphs_1,NA,3.6289850000175647,5ee91448dd71c9291b822a9d,NA,Male,2.6291399999754503,graphs/graph20b.png,NA,NA,NA,1,NA,graphs/graph20.png,2020.1.2,NA,0,0.6176399999530986,space,1.5251249999855645,NA,NA,0.43181520743358204,NA,13.684766666666667
﻿U_graphs_1,NA,27,NA,2020-06-16_21h31.17.975,Bachelor's degree (Healthcare science),0.3352964271692187,NA,NA,NA,2020-06-16_21h31.17.975,0.49234393404004717,NA,NA,1,NA,1,NA,NA,NA,NA,Win32,NA,NA,NA,NA,1,60,1,NA,U_graphs_1,NA,3.9378750000032596,5ee91448dd71c9291b822a9d,NA,Male,1.8718799999915063,graphs/graph21b.png,NA,NA,NA,2,NA,graphs/graph21.png,2020.1.2,NA,0,1.0545050000073388,space,0.9742100000148639,NA,NA,0.3107577542206519,NA,13.684766666666667
﻿U_graphs_1,NA,27,NA,2020-06-16_21h31.17.975,Bachelor's degree (Healthcare science),0.3761942154168303,NA,NA,NA,2020-06-16_21h31.17.975,0.5070671378091873,NA,NA,2,NA,2,NA,NA,NA,NA,Win32,NA,NA,NA,NA,1,60,1,NA,U_graphs_1,NA,4.214189999969676,5ee91448dd71c9291b822a9d,NA,Male,3.0583750000223517,graphs/graph27b.png,NA,NA,NA,8,NA,graphs/graph27.png,2020.1.2,NA,0,0.585640000004787,space,2.3360249999677762,NA,NA,0.2911268158617982,NA,13.684766666666667
﻿U_graphs_1,NA,27,NA,2020-06-16_21h31.17.975,Bachelor's degree (Healthcare science),0.4416306766130088,NA,NA,NA,2020-06-16_21h31.17.975,0.4432665881429133,NA,NA,3,NA,3,NA,NA,NA,NA,Win32,NA,NA,NA,NA,1,60,1,NA,U_graphs_1,NA,3.7375349999638274,5ee91448dd71c9291b822a9d,NA,Male,1.8375999999698251,graphs/graph25b.png,NA,NA,NA,6,NA,graphs/graph25.png,2020.1.2,NA,0,1.0082000000402331,space,1.1579749999800697,NA,NA,0.6951969637482006,NA,13.684766666666667
﻿U_graphs_1,NA,27,NA,2020-06-16_21h31.17.975,Bachelor's degree (Healthcare science),0.6510273524407801,NA,NA,NA,2020-06-16_21h31.17.975,0.39909697683549283,NA,NA,4,NA,4,NA,NA,NA,NA,Win32,NA,NA,NA,NA,1,60,1,NA,U_graphs_1,NA,4.503205000015441,5ee91448dd71c9291b822a9d,NA,Male,2.6209149999776855,graphs/graph24b.png,NA,NA,NA,5,NA,graphs/graph24.png,2020.1.2,NA,0,0.6021549999713898,space,3.6913999999524094,NA,NA,0.7377306635257166,NA,13.684766666666667
﻿U_graphs_1,NA,27,NA,2020-06-16_21h31.17.975,Bachelor's degree (Healthcare science),0.4465384112027222,NA,NA,NA,2020-06-16_21h31.17.975,0.682109671508965,NA,NA,5,NA,5,NA,NA,NA,NA,Win32,NA,NA,NA,NA,1,60,1,NA,U_graphs_1,NA,3.0158400000073016,5ee91448dd71c9291b822a9d,NA,Male,2.2557399999932386,graphs/graph26b.png,NA,NA,NA,7,NA,graphs/graph26.png,2020.1.2,NA,0,0.4509499999694526,space,1.4359800000092946,NA,NA,0.6526632639706845,NA,13.684766666666667
﻿U_graphs_1,NA,27,NA,2020-06-16_21h31.17.975,Bachelor's degree (Healthcare science),0.5185185185185186,NA,NA,NA,2020-06-16_21h31.17.975,0.5266980761680409,NA,NA,6,NA,6,NA,NA,NA,NA,Win32,NA,NA,NA,NA,1,60,1,NA,U_graphs_1,NA,4.593835000006948,5ee91448dd71c9291b822a9d,NA,Male,2.6282350000110455,graphs/graph22b.png,NA,NA,NA,3,NA,graphs/graph22.png,2020.1.2,NA,0,0.406394999998156,space,1.6917999999714084,NA,NA,0.3320246041094098,NA,13.684766666666667
﻿U_graphs_1,NA,27,NA,2020-06-16_21h31.17.975,Bachelor's degree (Healthcare science),0.46126161497186235,NA,NA,NA,2020-06-16_21h31.17.975,0.28785499280198934,NA,NA,7,NA,7,NA,NA,NA,NA,Win32,NA,NA,NA,NA,1,60,1,NA,U_graphs_1,NA,3.4990749999997206,5ee91448dd71c9291b822a9d,NA,Male,2.5406700000166893,graphs/graph23b.png,NA,NA,NA,4,NA,graphs/graph23.png,2020.1.2,NA,0,1.1048150000278838,space,1.7996550000389107,NA,NA,0.32057322340007866,NA,13.684766666666667
﻿U_graphs_1,NA,27,NA,2020-06-16_21h31.17.975,Bachelor's degree (Healthcare science),0.4089124460149196,NA,NA,NA,2020-06-16_21h31.17.975,0.3418400732888366,NA,NA,8,NA,8,NA,NA,NA,NA,Win32,NA,NA,NA,NA,1,60,1,NA,U_graphs_1,NA,3.657355000032112,5ee91448dd71c9291b822a9d,NA,Male,1.995725000044331,graphs/graph19b.png,NA,NA,NA,0,NA,graphs/graph19.png,2020.1.2,NA,0,1.0442349999793805,space,0.6893649999983609,NA,NA,0.7524538672948569,NA,13.684766666666667
﻿U_graphs_1,NA,27,NA,2020-06-16_21h31.17.975,Bachelor's degree (Healthcare science),NA,NA,5,NA,2020-06-16_21h31.17.975,NA,NA,NA,NA,NA,NA,The following graphs show how much money schools spend per pupil (on average). The data are taken from 24 schools in and around each English town or city.,NA,NA,NA,Win32,NA,1,NA,NA,1,60,NA,0,U_graphs_1,NA,NA,5ee91448dd71c9291b822a9d,NA,Male,NA,NA,NA,NA,5,NA,NA,NA,2020.1.2,NA,NA,NA,NA,NA,2,NA,NA,lists/schools_block.csv,13.684766666666667
﻿U_graphs_1,NA,27,NA,2020-06-16_21h31.17.975,Bachelor's degree (Healthcare science),0.4743489072110981,NA,NA,NA,2020-06-16_21h31.17.975,0.4874361994503338,NA,NA,0,NA,0,NA,NA,NA,NA,Win32,NA,NA,NA,NA,1,60,1,NA,U_graphs_1,NA,2.6641100000124425,5ee91448dd71c9291b822a9d,NA,Male,1.7586399999563582,graphs/graph34b.png,NA,NA,NA,6,NA,graphs/graph34.png,2020.1.2,NA,0,0.34240999998291954,space,0.8066400000243448,NA,NA,0.3058500196309384,NA,13.684766666666667
﻿U_graphs_1,NA,27,NA,2020-06-16_21h31.17.975,Bachelor's degree (Healthcare science),0.36147101164769013,NA,NA,NA,2020-06-16_21h31.17.975,0.3434759848187411,NA,NA,1,NA,1,NA,NA,NA,NA,Win32,NA,NA,NA,NA,1,60,1,NA,U_graphs_1,NA,2.4613299999618903,5ee91448dd71c9291b822a9d,NA,Male,1.606069999979809,graphs/graph31b.png,NA,NA,NA,3,NA,graphs/graph31.png,2020.1.2,NA,0,0.09238000004552305,space,0.8256049999617971,NA,NA,0.5545085721764168,NA,13.684766666666667
﻿U_graphs_1,NA,27,NA,2020-06-16_21h31.17.975,Bachelor's degree (Healthcare science),0.4530820573223401,NA,NA,NA,2020-06-16_21h31.17.975,0.4154560921345374,NA,NA,2,NA,2,NA,NA,NA,NA,Win32,NA,NA,NA,NA,1,60,1,NA,U_graphs_1,NA,2.719779999984894,5ee91448dd71c9291b822a9d,NA,Male,2.006269999954384,graphs/graph32b.png,NA,NA,NA,4,NA,graphs/graph32.png,2020.1.2,NA,0,0.09253000002354383,space,1.308019999996759,NA,NA,0.5496008375867034,NA,13.684766666666667
﻿U_graphs_1,NA,27,NA,2020-06-16_21h31.17.975,Bachelor's degree (Healthcare science),0.6673864677398247,NA,NA,NA,2020-06-16_21h31.17.975,0.27967543515246707,NA,NA,3,NA,3,NA,NA,NA,NA,Win32,NA,NA,NA,NA,1,60,1,NA,U_graphs_1,NA,3.7879749999847263,5ee91448dd71c9291b822a9d,NA,Male,2.713949999946635,graphs/graph29b.png,NA,NA,NA,1,NA,graphs/graph29.png,2020.1.2,NA,0,0.07143500004895031,space,0.923964999965392,NA,NA,0.31239366575055627,NA,13.684766666666667
﻿U_graphs_1,NA,27,NA,2020-06-16_21h31.17.975,Bachelor's degree (Healthcare science),0.6215809449024998,NA,NA,NA,2020-06-16_21h31.17.975,0.304214108101034,NA,NA,4,NA,4,NA,NA,NA,NA,Win32,NA,NA,NA,NA,1,60,1,NA,U_graphs_1,NA,4.990564999985509,5ee91448dd71c9291b822a9d,NA,Male,3.8883700000005774,graphs/graph30b.png,NA,NA,NA,2,NA,graphs/graph30.png,2020.1.2,NA,0,0.4603050000150688,space,1.0203999999794178,NA,NA,0.608493652663264,NA,13.684766666666667
﻿U_graphs_1,NA,27,NA,2020-06-16_21h31.17.975,Bachelor's degree (Healthcare science),0.28458316974218045,NA,NA,NA,2020-06-16_21h31.17.975,0.46944117262138474,NA,NA,5,NA,5,NA,NA,NA,NA,Win32,NA,NA,NA,NA,1,60,1,NA,U_graphs_1,NA,3.332319999986794,5ee91448dd71c9291b822a9d,NA,Male,1.470160000026226,graphs/graph33b.png,NA,NA,NA,5,NA,graphs/graph33.png,2020.1.2,NA,0,0.8063400000100955,space,0.9223149999743327,NA,NA,0.31566548881036516,NA,13.684766666666667
﻿U_graphs_1,NA,27,NA,2020-06-16_21h31.17.975,Bachelor's degree (Healthcare science),0.6673864677398247,NA,NA,NA,2020-06-16_21h31.17.975,0.28621908127208484,NA,NA,6,NA,6,NA,NA,NA,NA,Win32,NA,NA,NA,NA,1,60,1,NA,U_graphs_1,NA,3.2187900000135414,5ee91448dd71c9291b822a9d,NA,Male,1.6590800000121817,graphs/graph36b.png,NA,NA,NA,8,NA,graphs/graph36.png,2020.1.2,NA,0,0.35649999999441206,space,0.9212100000004284,NA,NA,0.6951969637482006,NA,13.684766666666667
﻿U_graphs_1,NA,27,NA,2020-06-16_21h31.17.975,Bachelor's degree (Healthcare science),0.5283339876979454,NA,NA,NA,2020-06-16_21h31.17.975,0.5430571914670855,NA,NA,7,NA,7,NA,NA,NA,NA,Win32,NA,NA,NA,NA,1,60,1,NA,U_graphs_1,NA,2.512594999978319,5ee91448dd71c9291b822a9d,NA,Male,1.744509999989532,graphs/graph28b.png,NA,NA,NA,0,NA,graphs/graph28.png,2020.1.2,NA,0,0.18488000001525506,space,0.912914999993518,NA,NA,0.3352964271692187,NA,13.684766666666667
﻿U_graphs_1,NA,27,NA,2020-06-16_21h31.17.975,Bachelor's degree (Healthcare science),0.6804737599790605,NA,NA,NA,2020-06-16_21h31.17.975,0.4465384112027222,NA,NA,8,NA,8,NA,NA,NA,NA,Win32,NA,NA,NA,NA,1,60,1,NA,U_graphs_1,NA,3.0234199999831617,5ee91448dd71c9291b822a9d,NA,Male,1.5773199999821372,graphs/graph35b.png,NA,NA,NA,7,NA,graphs/graph35.png,2020.1.2,NA,0,1.0309199999901466,space,0.9526399999740534,NA,NA,0.5185185185185186,NA,13.684766666666667
﻿U_graphs_1,NA,27,NA,2020-06-16_21h31.17.975,Bachelor's degree (Healthcare science),NA,NA,6,NA,2020-06-16_21h31.17.975,NA,NA,NA,NA,NA,NA,The following graphs show the number of live music performances held per year in different cities. The data are taken from 24 venues in each city.,NA,NA,NA,Win32,NA,1,NA,NA,1,60,NA,0,U_graphs_1,NA,NA,5ee91448dd71c9291b822a9d,NA,Male,NA,NA,NA,NA,6,NA,NA,NA,2020.1.2,NA,NA,NA,NA,NA,3,NA,NA,lists/performances_block.csv,13.684766666666667
﻿U_graphs_1,NA,27,NA,2020-06-16_21h31.17.975,Bachelor's degree (Healthcare science),0.502159403219474,NA,NA,NA,2020-06-16_21h31.17.975,0.5561444837063212,NA,NA,0,NA,0,NA,NA,NA,NA,Win32,NA,NA,NA,NA,1,60,1,NA,U_graphs_1,NA,2.468735000002198,5ee91448dd71c9291b822a9d,NA,Male,1.6859200000180863,graphs/graph7b.png,NA,NA,NA,6,NA,graphs/graph7.png,2020.1.2,NA,0,0.14287500001955777,space,0.9191950000240467,NA,NA,0.7148279021070542,NA,13.684766666666667
﻿U_graphs_1,NA,27,NA,2020-06-16_21h31.17.975,Bachelor's degree (Healthcare science),0.35165554246826336,NA,NA,NA,2020-06-16_21h31.17.975,0.6297605025520221,NA,NA,1,NA,1,NA,NA,NA,NA,Win32,NA,NA,NA,NA,1,60,1,NA,U_graphs_1,NA,2.3621949999942444,5ee91448dd71c9291b822a9d,NA,Male,1.543825000000652,graphs/graph9b.png,NA,NA,NA,8,NA,graphs/graph9.png,2020.1.2,NA,0,0.15276000002631918,space,0.8865850000292994,NA,NA,0.4858002879204294,NA,13.684766666666667
﻿U_graphs_1,NA,27,NA,2020-06-16_21h31.17.975,Bachelor's degree (Healthcare science),0.4416306766130088,NA,NA,NA,2020-06-16_21h31.17.975,0.3025781965711295,NA,NA,2,NA,2,NA,NA,NA,NA,Win32,NA,NA,NA,NA,1,60,1,NA,U_graphs_1,NA,2.3917900000233203,5ee91448dd71c9291b822a9d,NA,Male,1.5279999999911524,graphs/graph4b.png,NA,NA,NA,3,NA,graphs/graph4.png,2020.1.2,NA,0,0.12154999998165295,space,0.8539199999650009,NA,NA,0.2567726737338045,NA,13.684766666666667
﻿U_graphs_1,NA,27,NA,2020-06-16_21h31.17.975,Bachelor's degree (Healthcare science),0.480892553330716,NA,NA,NA,2020-06-16_21h31.17.975,0.6886533176285827,NA,NA,3,NA,3,NA,NA,NA,NA,Win32,NA,NA,NA,NA,1,60,1,NA,U_graphs_1,NA,2.3968750000349246,5ee91448dd71c9291b822a9d,NA,Male,1.6728299999958836,graphs/graph8b.png,NA,NA,NA,7,NA,graphs/graph8.png,2020.1.2,NA,0,0.39627999998629093,space,0.9362850000034086,NA,NA,0.6870174060986782,NA,13.684766666666667
﻿U_graphs_1,NA,27,NA,2020-06-16_21h31.17.975,Bachelor's degree (Healthcare science),0.3745583038869259,NA,NA,NA,2020-06-16_21h31.17.975,0.5855908912446015,NA,NA,4,NA,4,NA,NA,NA,NA,Win32,NA,NA,NA,NA,1,60,1,NA,U_graphs_1,NA,4.857260000018869,5ee91448dd71c9291b822a9d,NA,Male,2.2017050000140443,graphs/graph3b.png,NA,NA,NA,2,NA,graphs/graph3.png,2020.1.2,NA,0,2.118270000035409,space,1.3877149999607354,NA,NA,0.32057322340007866,NA,13.684766666666667
﻿U_graphs_1,NA,27,NA,2020-06-16_21h31.17.975,Bachelor's degree (Healthcare science),0.3303886925795054,NA,NA,NA,2020-06-16_21h31.17.975,0.49234393404004717,NA,NA,5,NA,5,NA,NA,NA,NA,Win32,NA,NA,NA,NA,1,60,1,NA,U_graphs_1,NA,2.397999999986496,5ee91448dd71c9291b822a9d,NA,Male,1.5420799999847077,graphs/graph2b.png,NA,NA,NA,1,NA,graphs/graph2.png,2020.1.2,NA,0,0.33626000001095235,space,0.8525399999925867,NA,NA,0.5348776338175633,NA,13.684766666666667
﻿U_graphs_1,NA,27,NA,2020-06-16_21h31.17.975,Bachelor's degree (Healthcare science),0.6837455830388693,NA,NA,NA,2020-06-16_21h31.17.975,0.46616934956157574,NA,NA,6,NA,6,NA,NA,NA,NA,Win32,NA,NA,NA,NA,1,60,1,NA,U_graphs_1,NA,2.4686250000377186,5ee91448dd71c9291b822a9d,NA,Male,1.7094299999880604,graphs/graph6b.png,NA,NA,NA,5,NA,graphs/graph6.png,2020.1.2,NA,0,0.2864500000141561,space,0.8036250000004657,NA,NA,0.6297605025520221,NA,13.684766666666667
﻿U_graphs_1,NA,27,NA,2020-06-16_21h31.17.975,Bachelor's degree (Healthcare science),0.7082842559874363,NA,NA,NA,2020-06-16_21h31.17.975,0.3074859311608429,NA,NA,7,NA,7,NA,NA,NA,NA,Win32,NA,NA,NA,NA,1,60,1,NA,U_graphs_1,NA,3.14368999999715,5ee91448dd71c9291b822a9d,NA,Male,2.0754500000039116,graphs/graph5b.png,NA,NA,NA,4,NA,graphs/graph5.png,2020.1.2,NA,0,0.48447500000474975,space,0.9079450000426732,NA,NA,0.25350085067399564,NA,13.684766666666667
﻿U_graphs_1,NA,27,NA,2020-06-16_21h31.17.975,Bachelor's degree (Healthcare science),0.5332417222876588,NA,NA,NA,2020-06-16_21h31.17.975,0.6264886794922131,NA,NA,8,NA,8,NA,NA,NA,NA,Win32,NA,NA,NA,NA,1,60,1,NA,U_graphs_1,NA,1.7272499999962747,5ee91448dd71c9291b822a9d,NA,Male,1.153969999984838,graphs/graph1b.png,NA,NA,NA,0,NA,graphs/graph1.png,2020.1.2,NA,0,0.17857499996898696,space,0.6274049999774434,NA,NA,0.7017406098678185,NA,13.684766666666667
﻿U_graphs_1,2.443794999970123,27,NA,2020-06-16_21h31.17.975,Bachelor's degree (Healthcare science),NA,NA,NA,NA,2020-06-16_21h31.17.975,NA,NA,NA,NA,NA,NA,NA,NA,NA,NA,Win32,NA,NA,y,NA,1,60,NA,NA,U_graphs_1,NA,NA,5ee91448dd71c9291b822a9d,NA,Male,NA,NA,NA,NA,NA,NA,NA,NA,2020.1.2,NA,NA,NA,NA,NA,NA,NA,NA,NA,13.684766666666667
﻿U_graphs_1,NA,31,NA,2020-06-17_15h27.17.403,Ba(Hons),NA,NA,NA,1,2020-06-17_15h27.17.403,NA,5.168589999899268,0,NA,NA,NA,NA,NA,I confirm that I have read the study description for this study and have had the opportunity to consider the information.,1 of 5,MacIntel,0,NA,NA,NA,2,60,NA,NA,U_graphs_1,0,NA,5ee91448dd71c9291b822a9d,NA,Male,NA,NA,0,NA,NA,NA,NA,NA,2020.1.2,NA,NA,NA,NA,NA,NA,y,NA,NA,12.904383333333334
﻿U_graphs_1,NA,31,NA,2020-06-17_15h27.17.403,Ba(Hons),NA,NA,NA,1,2020-06-17_15h27.17.403,NA,0.45007999998051673,1,NA,NA,NA,NA,NA,"I understand that my participation in the study is voluntary and that I am free to withdraw at any time without giving a reason and without detriment to myself, but I will not be paid for the study.  I understand that it will not be possible to remove my data from the project once it has been anonymised and forms part of the data set.  
I agree to take part on this basis.",2 of 5,MacIntel,1,NA,NA,NA,2,60,NA,NA,U_graphs_1,1,NA,5ee91448dd71c9291b822a9d,NA,Male,NA,NA,0,NA,NA,NA,NA,NA,2020.1.2,NA,NA,NA,NA,NA,NA,y,NA,NA,12.904383333333334
﻿U_graphs_1,NA,31,NA,2020-06-17_15h27.17.403,Ba(Hons),NA,NA,NA,1,2020-06-17_15h27.17.403,NA,2.922984999953769,2,NA,NA,NA,NA,NA,"I understand that any data collected may be published in anonymous form in academic books, reports or journals. I understand that it will also be permanently stored in anonymous form in a public online repository, and may be used for future studies.",3 of 5,MacIntel,2,NA,NA,NA,2,60,NA,NA,U_graphs_1,2,NA,5ee91448dd71c9291b822a9d,NA,Male,NA,NA,0,NA,NA,NA,NA,NA,2020.1.2,NA,NA,NA,NA,NA,NA,y,NA,NA,12.904383333333334
﻿U_graphs_1,NA,31,NA,2020-06-17_15h27.17.403,Ba(Hons),NA,NA,NA,1,2020-06-17_15h27.17.403,NA,1.6119050000561401,3,NA,NA,NA,NA,NA,"I understand that data collected during the study may be looked at by individuals from The University of Manchester or regulatory authorities, where it is relevant to my taking part in this research. I give permission for these individuals to have access to my data.",4 of 5,MacIntel,3,NA,NA,NA,2,60,NA,NA,U_graphs_1,3,NA,5ee91448dd71c9291b822a9d,NA,Male,NA,NA,0,NA,NA,NA,NA,NA,2020.1.2,NA,NA,NA,NA,NA,NA,y,NA,NA,12.904383333333334
﻿U_graphs_1,NA,31,NA,2020-06-17_15h27.17.403,Ba(Hons),NA,NA,NA,1,2020-06-17_15h27.17.403,NA,0.6327300000702962,4,NA,NA,NA,NA,NA,I agree to take part in this study.,5 of 5,MacIntel,4,NA,NA,NA,2,60,NA,NA,U_graphs_1,4,NA,5ee91448dd71c9291b822a9d,NA,Male,NA,NA,0,NA,NA,NA,NA,NA,2020.1.2,NA,NA,NA,NA,NA,NA,y,NA,NA,12.904383333333334
﻿U_graphs_1,NA,31,NA,2020-06-17_15h27.17.403,Ba(Hons),NA,"This graph shows the average amount of 
 rainfall per day in Edinburgh for one month",NA,NA,2020-06-17_15h27.17.403,NA,NA,NA,NA,tutorial_and_prac_graphs/tut1.png,NA,NA,0,NA,NA,MacIntel,NA,NA,NA,0,2,60,NA,NA,U_graphs_1,NA,NA,5ee91448dd71c9291b822a9d,0,Male,NA,NA,NA,NA,NA,NA,0,NA,2020.1.2,1,NA,NA,NA,NA,NA,NA,NA,NA,12.904383333333334
﻿U_graphs_1,NA,31,NA,2020-06-17_15h27.17.403,Ba(Hons),NA,"The average amount of rainfall per day 
 was just over 5 mm",NA,NA,2020-06-17_15h27.17.403,NA,NA,NA,NA,tutorial_and_prac_graphs/tut1.png,NA,NA,1,NA,NA,MacIntel,NA,NA,NA,1,2,60,NA,NA,U_graphs_1,NA,NA,5ee91448dd71c9291b822a9d,0,Male,NA,NA,NA,NA,NA,NA,1,NA,2020.1.2,1,NA,NA,NA,NA,NA,NA,NA,NA,12.904383333333334
﻿U_graphs_1,NA,31,NA,2020-06-17_15h27.17.403,Ba(Hons),NA,"That average is calculated using the 
 rainfall from all 30 days in that month",NA,NA,2020-06-17_15h27.17.403,NA,NA,NA,NA,tutorial_and_prac_graphs/tut2.png,NA,NA,2,NA,NA,MacIntel,NA,NA,NA,2,2,60,NA,NA,U_graphs_1,NA,NA,5ee91448dd71c9291b822a9d,0,Male,NA,NA,NA,NA,NA,NA,2,NA,2020.1.2,1,NA,NA,NA,NA,NA,NA,NA,NA,12.904383333333334
﻿U_graphs_1,NA,31,NA,2020-06-17_15h27.17.403,Ba(Hons),NA,"That average is calculated using the 
 rainfall from all 30 days in that month",NA,NA,2020-06-17_15h27.17.403,NA,NA,NA,NA,tutorial_and_prac_graphs/tut3.png,NA,NA,3,NA,NA,MacIntel,NA,NA,NA,3,2,60,NA,NA,U_graphs_1,NA,NA,5ee91448dd71c9291b822a9d,0,Male,NA,NA,NA,NA,NA,NA,3,NA,2020.1.2,1,NA,NA,NA,NA,NA,NA,NA,NA,12.904383333333334
﻿U_graphs_1,NA,31,NA,2020-06-17_15h27.17.403,Ba(Hons),NA,"That average is calculated using the 
 rainfall from all 30 days in that month",NA,NA,2020-06-17_15h27.17.403,NA,NA,NA,NA,tutorial_and_prac_graphs/tut4.png,NA,NA,4,NA,NA,MacIntel,NA,NA,NA,4,2,60,NA,NA,U_graphs_1,NA,NA,5ee91448dd71c9291b822a9d,0,Male,NA,NA,NA,NA,NA,NA,4,NA,2020.1.2,1,NA,NA,NA,NA,NA,NA,NA,NA,12.904383333333334
﻿U_graphs_1,NA,31,NA,2020-06-17_15h27.17.403,Ba(Hons),NA,"That average is calculated using the 
 rainfall from all 30 days in that month",NA,NA,2020-06-17_15h27.17.403,NA,NA,NA,NA,tutorial_and_prac_graphs/tut5.png,NA,NA,5,NA,NA,MacIntel,NA,NA,NA,5,2,60,NA,NA,U_graphs_1,NA,NA,5ee91448dd71c9291b822a9d,0,Male,NA,NA,NA,NA,NA,NA,5,NA,2020.1.2,1,NA,NA,NA,NA,NA,NA,NA,NA,12.904383333333334
﻿U_graphs_1,NA,31,NA,2020-06-17_15h27.17.403,Ba(Hons),NA,"The red circle shows the average for 
 the whole month",NA,NA,2020-06-17_15h27.17.403,NA,NA,NA,NA,tutorial_and_prac_graphs/tut6.png,NA,NA,6,NA,NA,MacIntel,NA,NA,NA,6,2,60,NA,NA,U_graphs_1,NA,NA,5ee91448dd71c9291b822a9d,0,Male,NA,NA,NA,NA,NA,NA,6,NA,2020.1.2,1,NA,NA,NA,NA,NA,NA,NA,NA,12.904383333333334
﻿U_graphs_1,NA,31,NA,2020-06-17_15h27.17.403,Ba(Hons),0.5995645152385158,NA,NA,NA,2020-06-17_15h27.17.403,0.5040908651722615,NA,NA,0,NA,0,NA,NA,NA,NA,MacIntel,NA,NA,NA,NA,2,60,1,NA,U_graphs_1,NA,3.5454299999400973,5ee91448dd71c9291b822a9d,NA,Male,2.5216599999694154,graphs/graph41b.png,NA,NA,NA,4,NA,graphs/graph41.png,2020.1.2,NA,0,0.9021149999462068,space,1.4100799999432638,NA,NA,0.4888385462676679,NA,12.904383333333334
﻿U_graphs_1,NA,31,NA,2020-06-17_15h27.17.403,Ba(Hons),0.8461379196113075,NA,NA,NA,2020-06-17_15h27.17.403,0.7298821223498233,NA,NA,1,NA,1,NA,NA,NA,NA,MacIntel,NA,NA,NA,NA,2,60,1,NA,U_graphs_1,NA,2.6527149999747053,5ee91448dd71c9291b822a9d,NA,Male,1.9432350000133738,graphs/graph42b.png,NA,NA,NA,5,NA,graphs/graph42.png,2020.1.2,NA,0,0.18047000002115965,space,0.9880250000860542,NA,NA,0.7516045991607774,NA,12.904383333333334
﻿U_graphs_1,NA,31,NA,2020-06-17_15h27.17.403,Ba(Hons),0.3917344164090105,NA,NA,NA,2020-06-17_15h27.17.403,0.4802806840768551,NA,NA,2,NA,2,NA,NA,NA,NA,MacIntel,NA,NA,NA,NA,2,60,1,NA,U_graphs_1,NA,2.9427350000478327,5ee91448dd71c9291b822a9d,NA,Male,1.6732949999859557,graphs/graph44b.png,NA,NA,NA,7,NA,graphs/graph44.png,2020.1.2,NA,0,0.5017099999822676,space,0.9411450000479817,NA,NA,0.4470585799469964,NA,12.904383333333334
﻿U_graphs_1,NA,31,NA,2020-06-17_15h27.17.403,Ba(Hons),0.6614623592093639,NA,NA,NA,2020-06-17_15h27.17.403,0.7383450888913428,NA,NA,3,NA,3,NA,NA,NA,NA,MacIntel,NA,NA,NA,NA,2,60,1,NA,U_graphs_1,NA,2.329660000046715,5ee91448dd71c9291b822a9d,NA,Male,1.5586950000142679,graphs/graph39b.png,NA,NA,NA,2,NA,graphs/graph39.png,2020.1.2,NA,0,0.2522350000217557,space,0.7844949999125674,NA,NA,0.5750037958259717,NA,12.904383333333334
﻿U_graphs_1,NA,31,NA,2020-06-17_15h27.17.403,Ba(Hons),0.4262505521201413,NA,NA,NA,2020-06-17_15h27.17.403,0.5260548945450529,NA,NA,4,NA,4,NA,NA,NA,NA,MacIntel,NA,NA,NA,NA,2,60,1,NA,U_graphs_1,NA,2.885275000007823,5ee91448dd71c9291b822a9d,NA,Male,1.824614999932237,graphs/graph45b.png,NA,NA,NA,8,NA,graphs/graph45.png,2020.1.2,NA,0,0.3022849999833852,space,0.9850449999794364,NA,NA,0.2871249033789752,NA,12.904383333333334
﻿U_graphs_1,NA,31,NA,2020-06-17_15h27.17.403,Ba(Hons),0.6655687527606007,NA,NA,NA,2020-06-17_15h27.17.403,0.6370655504637809,NA,NA,5,NA,5,NA,NA,NA,NA,MacIntel,NA,NA,NA,NA,2,60,1,NA,U_graphs_1,NA,2.3604049999266863,5ee91448dd71c9291b822a9d,NA,Male,1.5606600000755861,graphs/graph40b.png,NA,NA,NA,3,NA,graphs/graph40.png,2020.1.2,NA,0,0.1486450000666082,space,0.8760649999603629,NA,NA,0.38339222614840984,NA,12.904383333333334
﻿U_graphs_1,NA,31,NA,2020-06-17_15h27.17.403,Ba(Hons),0.6887232911881626,NA,NA,NA,2020-06-17_15h27.17.403,0.7701265045273852,NA,NA,6,NA,6,NA,NA,NA,NA,MacIntel,NA,NA,NA,NA,2,60,1,NA,U_graphs_1,NA,2.3531600000569597,5ee91448dd71c9291b822a9d,NA,Male,1.6860399999422953,graphs/graph38b.png,NA,NA,NA,1,NA,graphs/graph38.png,2020.1.2,NA,0,0.4483250000048429,space,0.8865399999776855,NA,NA,0.7660459916077739,NA,12.904383333333334
﻿U_graphs_1,NA,31,NA,2020-06-17_15h27.17.403,Ba(Hons),0.5564818904593639,NA,NA,NA,2020-06-17_15h27.17.403,0.5020549221510601,NA,NA,7,NA,7,NA,NA,NA,NA,MacIntel,NA,NA,NA,NA,2,60,1,NA,U_graphs_1,NA,2.4962349999696016,5ee91448dd71c9291b822a9d,NA,Male,1.7209150000708178,graphs/graph43b.png,NA,NA,NA,6,NA,graphs/graph43.png,2020.1.2,NA,0,0.6810099999420345,space,0.9450400000205263,NA,NA,0.6977038703621908,NA,12.904383333333334
﻿U_graphs_1,NA,31,NA,2020-06-17_15h27.17.403,Ba(Hons),0.6888699481007067,NA,NA,NA,2020-06-17_15h27.17.403,0.6140662958259717,NA,NA,8,NA,8,NA,NA,NA,NA,MacIntel,NA,NA,NA,NA,2,60,1,NA,U_graphs_1,NA,2.333875000011176,5ee91448dd71c9291b822a9d,NA,Male,1.541230000089854,graphs/graph37b.png,NA,NA,NA,0,NA,graphs/graph37.png,2020.1.2,NA,0,0.37956500006839633,space,0.7257550000213087,NA,NA,0.737560043065371,NA,12.904383333333334
﻿U_graphs_1,NA,31,NA,2020-06-17_15h27.17.403,Ba(Hons),NA,NA,0,NA,2020-06-17_15h27.17.403,NA,NA,NA,NA,NA,NA,The following graphs show teachers' performance. 24 pupils in each teacher's class were asked to rate their lesson out of 100.,NA,NA,NA,MacIntel,NA,1,NA,NA,2,60,NA,0,U_graphs_1,NA,NA,5ee91448dd71c9291b822a9d,NA,Male,NA,NA,NA,NA,0,NA,NA,NA,2020.1.2,NA,NA,NA,NA,NA,4,NA,NA,lists/teachers2_block.csv,12.904383333333334
﻿U_graphs_1,NA,31,NA,2020-06-17_15h27.17.403,Ba(Hons),0.5898851590106007,NA,NA,NA,2020-06-17_15h27.17.403,0.8007864261263251,NA,NA,0,NA,0,NA,NA,NA,NA,MacIntel,NA,NA,NA,NA,2,60,1,NA,U_graphs_1,NA,0.8902699999744073,5ee91448dd71c9291b822a9d,NA,Male,1.6723650000058115,graphs/graph8b.png,NA,NA,NA,7,NA,graphs/graph8.png,2020.1.2,NA,0,0.15273500001057982,space,2.657664999947883,NA,NA,0.7141725789531802,NA,12.904383333333334
﻿U_graphs_1,NA,31,NA,2020-06-17_15h27.17.403,Ba(Hons),0.4698594164090105,NA,NA,NA,2020-06-17_15h27.17.403,0.661910956824205,NA,NA,1,NA,1,NA,NA,NA,NA,MacIntel,NA,NA,NA,NA,2,60,1,NA,U_graphs_1,NA,2.2741249999962747,5ee91448dd71c9291b822a9d,NA,Male,1.5067350000608712,graphs/graph9b.png,NA,NA,NA,8,NA,graphs/graph9.png,2020.1.2,NA,0,0.27058500004932284,space,0.7736700000241399,NA,NA,0.5275473443021201,NA,12.904383333333334
﻿U_graphs_1,NA,31,NA,2020-06-17_15h27.17.403,Ba(Hons),0.39278689542844525,NA,NA,NA,2020-06-17_15h27.17.403,0.6797340851369258,NA,NA,2,NA,2,NA,NA,NA,NA,MacIntel,NA,NA,NA,NA,2,60,1,NA,U_graphs_1,NA,3.1130450000055134,5ee91448dd71c9291b822a9d,NA,Male,2.120424999971874,graphs/graph3b.png,NA,NA,NA,2,NA,graphs/graph3.png,2020.1.2,NA,0,0.3316849999828264,space,1.248604999971576,NA,NA,0.42914055598498235,NA,12.904383333333334
﻿U_graphs_1,NA,31,NA,2020-06-17_15h27.17.403,Ba(Hons),0.5671619644434629,NA,NA,NA,2020-06-17_15h27.17.403,0.7117743070892226,NA,NA,3,NA,3,NA,NA,NA,NA,MacIntel,NA,NA,NA,NA,2,60,1,NA,U_graphs_1,NA,3.1773449999745935,5ee91448dd71c9291b822a9d,NA,Male,2.160740000079386,graphs/graph1b.png,NA,NA,NA,0,NA,graphs/graph1.png,2020.1.2,NA,0,0.33534500002861023,space,1.1093000000109896,NA,NA,0.6794839056978799,NA,12.904383333333334
﻿U_graphs_1,NA,31,NA,2020-06-17_15h27.17.403,Ba(Hons),0.4611290166740283,NA,NA,NA,2020-06-17_15h27.17.403,0.6105637836793286,NA,NA,4,NA,4,NA,NA,NA,NA,MacIntel,NA,NA,NA,NA,2,60,1,NA,U_graphs_1,NA,3.3690499999793246,5ee91448dd71c9291b822a9d,NA,Male,2.495200000004843,graphs/graph2b.png,NA,NA,NA,1,NA,graphs/graph2.png,2020.1.2,NA,0,0.5389549999963492,space,1.6149100000038743,NA,NA,0.5647205581934629,NA,12.904383333333334
﻿U_graphs_1,NA,31,NA,2020-06-17_15h27.17.403,Ba(Hons),0.5156336268772085,NA,NA,NA,2020-06-17_15h27.17.403,0.6212783651722615,NA,NA,5,NA,5,NA,NA,NA,NA,MacIntel,NA,NA,NA,NA,2,60,1,NA,U_graphs_1,NA,3.161244999966584,5ee91448dd71c9291b822a9d,NA,Male,2.3286999999545515,graphs/graph7b.png,NA,NA,NA,6,NA,graphs/graph7.png,2020.1.2,NA,0,0.37355499994009733,space,1.5745899999747053,NA,NA,0.7482487439266785,NA,12.904383333333334
﻿U_graphs_1,NA,31,NA,2020-06-17_15h27.17.403,Ba(Hons),0.7593429080167844,NA,NA,NA,2020-06-17_15h27.17.403,0.4798579670936396,NA,NA,6,NA,6,NA,NA,NA,NA,MacIntel,NA,NA,NA,NA,2,60,1,NA,U_graphs_1,NA,2.951784999924712,5ee91448dd71c9291b822a9d,NA,Male,2.241979999933392,graphs/graph5b.png,NA,NA,NA,4,NA,graphs/graph5.png,2020.1.2,NA,0,0.23497499991208315,space,1.5413399999961257,NA,NA,0.5784890542181979,NA,12.904383333333334
﻿U_graphs_1,NA,31,NA,2020-06-17_15h27.17.403,Ba(Hons),0.7615255079505301,NA,NA,NA,2020-06-17_15h27.17.403,0.59658824260159,NA,NA,7,NA,7,NA,NA,NA,NA,MacIntel,NA,NA,NA,NA,2,60,1,NA,U_graphs_1,NA,2.744509999989532,5ee91448dd71c9291b822a9d,NA,Male,0.8080049999989569,graphs/graph6b.png,NA,NA,NA,5,NA,graphs/graph6.png,2020.1.2,NA,0,0.3808849999913946,space,1.7898450000211596,NA,NA,0.6862818849381626,NA,12.904383333333334
﻿U_graphs_1,NA,31,NA,2020-06-17_15h27.17.403,Ba(Hons),0.4146215216431095,NA,NA,NA,2020-06-17_15h27.17.403,0.36529303776501765,NA,NA,8,NA,8,NA,NA,NA,NA,MacIntel,NA,NA,NA,NA,2,60,1,NA,U_graphs_1,NA,2.630790000082925,5ee91448dd71c9291b822a9d,NA,Male,1.7782100000185892,graphs/graph4b.png,NA,NA,NA,3,NA,graphs/graph4.png,2020.1.2,NA,0,0.3129850000841543,space,0.9630149999866262,NA,NA,0.2581731034673145,NA,12.904383333333334
﻿U_graphs_1,NA,31,NA,2020-06-17_15h27.17.403,Ba(Hons),NA,NA,1,NA,2020-06-17_15h27.17.403,NA,NA,NA,NA,NA,NA,The following graphs show marathon times for a sample of 24 runners from each country.,NA,NA,NA,MacIntel,NA,1,NA,NA,2,60,NA,0,U_graphs_1,NA,NA,5ee91448dd71c9291b822a9d,NA,Male,NA,NA,NA,NA,1,NA,NA,NA,2020.1.2,NA,NA,NA,NA,NA,0,NA,NA,lists/marathon_block.csv,12.904383333333334
﻿U_graphs_1,NA,31,NA,2020-06-17_15h27.17.403,Ba(Hons),0.5191879002871025,NA,NA,NA,2020-06-17_15h27.17.403,0.4659945754196113,NA,NA,0,NA,0,NA,NA,NA,NA,MacIntel,NA,NA,NA,NA,2,60,1,NA,U_graphs_1,NA,1.9211750000249594,5ee91448dd71c9291b822a9d,NA,Male,1.2082550000632182,graphs/graph64b.png,NA,NA,NA,0,NA,graphs/graph64.png,2020.1.2,NA,0,0.18975499994121492,space,2.8920299999881536,NA,NA,0.36576751601148405,NA,12.904383333333334
﻿U_graphs_1,NA,31,NA,2020-06-17_15h27.17.403,Ba(Hons),0.7277512836793286,NA,NA,NA,2020-06-17_15h27.17.403,0.5685767723056536,NA,NA,1,NA,1,NA,NA,NA,NA,MacIntel,NA,NA,NA,NA,2,60,1,NA,U_graphs_1,NA,2.610910000046715,5ee91448dd71c9291b822a9d,NA,Male,1.7223249999806285,graphs/graph66b.png,NA,NA,NA,2,NA,graphs/graph66.png,2020.1.2,NA,0,0.47938999999314547,space,0.9141900000395253,NA,NA,0.7614133585468198,NA,12.904383333333334
﻿U_graphs_1,NA,31,NA,2020-06-17_15h27.17.403,Ba(Hons),0.5372784617932862,NA,NA,NA,2020-06-17_15h27.17.403,0.3525683938825088,NA,NA,2,NA,2,NA,NA,NA,NA,MacIntel,NA,NA,NA,NA,2,60,1,NA,U_graphs_1,NA,2.886064999969676,5ee91448dd71c9291b822a9d,NA,Male,1.9088800000026822,graphs/graph72b.png,NA,NA,NA,8,NA,graphs/graph72.png,2020.1.2,NA,0,0.30041499994695187,space,1.0561449999222532,NA,NA,0.44638568352473496,NA,12.904383333333334
﻿U_graphs_1,NA,31,NA,2020-06-17_15h27.17.403,Ba(Hons),0.587521394655477,NA,NA,NA,2020-06-17_15h27.17.403,0.4233691751325088,NA,NA,3,NA,3,NA,NA,NA,NA,MacIntel,NA,NA,NA,NA,2,60,1,NA,U_graphs_1,NA,2.8932999999960884,5ee91448dd71c9291b822a9d,NA,Male,1.9939850000664592,graphs/graph70b.png,NA,NA,NA,6,NA,graphs/graph70.png,2020.1.2,NA,0,5.004604999907315,space,1.0764000000199303,NA,NA,0.4859140348939929,NA,12.904383333333334
﻿U_graphs_1,NA,31,NA,2020-06-17_15h27.17.403,Ba(Hons),0.4128788924469964,NA,NA,NA,2020-06-17_15h27.17.403,0.32235706989840984,NA,NA,4,NA,4,NA,NA,NA,NA,MacIntel,NA,NA,NA,NA,2,60,1,NA,U_graphs_1,NA,2.317579999915324,5ee91448dd71c9291b822a9d,NA,Male,1.5818750000325963,graphs/graph71b.png,NA,NA,NA,7,NA,graphs/graph71.png,2020.1.2,NA,0,1.5026099999668077,space,0.804909999947995,NA,NA,0.3652757840106007,NA,12.904383333333334
﻿U_graphs_1,NA,31,NA,2020-06-17_15h27.17.403,Ba(Hons),0.5209650369920494,NA,NA,NA,2020-06-17_15h27.17.403,0.37467908016784446,NA,NA,5,NA,5,NA,NA,NA,NA,MacIntel,NA,NA,NA,NA,2,60,1,NA,U_graphs_1,NA,2.8045250000432134,5ee91448dd71c9291b822a9d,NA,Male,2.0089249999728054,graphs/graph68b.png,NA,NA,NA,4,NA,graphs/graph68.png,2020.1.2,NA,0,0.23410999996121973,space,1.1754350000992417,NA,NA,0.46528717148851584,NA,12.904383333333334
﻿U_graphs_1,NA,31,NA,2020-06-17_15h27.17.403,Ba(Hons),0.7354895925353357,NA,NA,NA,2020-06-17_15h27.17.403,0.665663648409894,NA,NA,6,NA,6,NA,NA,NA,NA,MacIntel,NA,NA,NA,NA,2,60,1,NA,U_graphs_1,NA,2.608810000005178,5ee91448dd71c9291b822a9d,NA,Male,1.744340000092052,graphs/graph69b.png,NA,NA,NA,5,NA,graphs/graph69.png,2020.1.2,NA,0,0.277849999954924,space,0.8478449999820441,NA,NA,0.657209308745583,NA,12.904383333333334
﻿U_graphs_1,NA,31,NA,2020-06-17_15h27.17.403,Ba(Hons),0.6999468584363957,NA,NA,NA,2020-06-17_15h27.17.403,0.6288527633613075,NA,NA,7,NA,7,NA,NA,NA,NA,MacIntel,NA,NA,NA,NA,2,60,1,NA,U_graphs_1,NA,4.7540599999483675,5ee91448dd71c9291b822a9d,NA,Male,3.8085799999535084,graphs/graph67b.png,NA,NA,NA,3,NA,graphs/graph67.png,2020.1.2,NA,0,1.3157450000289828,space,2.7556049999548122,NA,NA,0.6666902467977032,NA,12.904383333333334
﻿U_graphs_1,NA,31,NA,2020-06-17_15h27.17.403,Ba(Hons),0.5139082514355123,NA,NA,NA,2020-06-17_15h27.17.403,0.3206920825971731,NA,NA,8,NA,8,NA,NA,NA,NA,MacIntel,NA,NA,NA,NA,2,60,1,NA,U_graphs_1,NA,3.0191849999828264,5ee91448dd71c9291b822a9d,NA,Male,1.9551699999719858,graphs/graph65b.png,NA,NA,NA,1,NA,graphs/graph65.png,2020.1.2,NA,0,0.6740650000283495,space,1.0736899999901652,NA,NA,0.3652067689929328,NA,12.904383333333334
﻿U_graphs_1,NA,31,NA,2020-06-17_15h27.17.403,Ba(Hons),NA,NA,2,NA,2020-06-17_15h27.17.403,NA,NA,NA,NA,NA,NA,The following graphs show how much money different companies invest in sustainability. The data are taken from 24 companies from each country.,NA,NA,NA,MacIntel,NA,1,NA,NA,2,60,NA,0,U_graphs_1,NA,NA,5ee91448dd71c9291b822a9d,NA,Male,NA,NA,NA,NA,2,NA,NA,NA,2020.1.2,NA,NA,NA,NA,NA,7,NA,NA,lists/expenditure_block.csv,12.904383333333334
﻿U_graphs_1,NA,31,NA,2020-06-17_15h27.17.403,Ba(Hons),0.39584943683745577,NA,NA,NA,2020-06-17_15h27.17.403,0.5113115613957597,NA,NA,0,NA,0,NA,NA,NA,NA,MacIntel,NA,NA,NA,NA,2,60,1,NA,U_graphs_1,NA,3.607949999975972,5ee91448dd71c9291b822a9d,NA,Male,2.740764999995008,graphs/graph35b.png,NA,NA,NA,7,NA,graphs/graph35.png,2020.1.2,NA,0,0.16767500003334135,space,1.7852999999886379,NA,NA,0.4931692386263251,NA,12.904383333333334
﻿U_graphs_1,NA,31,NA,2020-06-17_15h27.17.403,Ba(Hons),0.6059052699867491,NA,NA,NA,2020-06-17_15h27.17.403,0.37372149679770317,NA,NA,1,NA,1,NA,NA,NA,NA,MacIntel,NA,NA,NA,NA,2,60,1,NA,U_graphs_1,NA,2.6416250000474975,5ee91448dd71c9291b822a9d,NA,Male,1.707304999930784,graphs/graph30b.png,NA,NA,NA,2,NA,graphs/graph30.png,2020.1.2,NA,0,0.27012500003911555,space,0.9742550000082701,NA,NA,0.6173100016563604,NA,12.904383333333334
﻿U_graphs_1,NA,31,NA,2020-06-17_15h27.17.403,Ba(Hons),0.5393834198321554,NA,NA,NA,2020-06-17_15h27.17.403,0.4836192855565371,NA,NA,2,NA,2,NA,NA,NA,NA,MacIntel,NA,NA,NA,NA,2,60,1,NA,U_graphs_1,NA,2.413494999986142,5ee91448dd71c9291b822a9d,NA,Male,1.7122199999867007,graphs/graph28b.png,NA,NA,NA,0,NA,graphs/graph28.png,2020.1.2,NA,0,0.43362000002525747,space,0.9086149999639019,NA,NA,0.3402664669832155,NA,12.904383333333334
﻿U_graphs_1,NA,31,NA,2020-06-17_15h27.17.403,Ba(Hons),0.5139945202075972,NA,NA,NA,2020-06-17_15h27.17.403,0.590644324204947,NA,NA,3,NA,3,NA,NA,NA,NA,MacIntel,NA,NA,NA,NA,2,60,1,NA,U_graphs_1,NA,2.977349999942817,5ee91448dd71c9291b822a9d,NA,Male,2.2546350000193343,graphs/graph33b.png,NA,NA,NA,5,NA,graphs/graph33.png,2020.1.2,NA,0,0.2896399999735877,space,1.2193699999479577,NA,NA,0.3944432558524734,NA,12.904383333333334
﻿U_graphs_1,NA,31,NA,2020-06-17_15h27.17.403,Ba(Hons),0.5750641839664311,NA,NA,NA,2020-06-17_15h27.17.403,0.311392308966431,NA,NA,4,NA,4,NA,NA,NA,NA,MacIntel,NA,NA,NA,NA,2,60,1,NA,U_graphs_1,NA,2.376185000059195,5ee91448dd71c9291b822a9d,NA,Male,1.6417599999113008,graphs/graph29b.png,NA,NA,NA,1,NA,graphs/graph29.png,2020.1.2,NA,0,0.1323000000556931,space,0.8094399999827147,NA,NA,0.3905266535998233,NA,12.904383333333334
﻿U_graphs_1,NA,31,NA,2020-06-17_15h27.17.403,Ba(Hons),0.446351176015901,NA,NA,NA,2020-06-17_15h27.17.403,0.5124675629416962,NA,NA,5,NA,5,NA,NA,NA,NA,MacIntel,NA,NA,NA,NA,2,60,1,NA,U_graphs_1,NA,2.659734999993816,5ee91448dd71c9291b822a9d,NA,Male,1.8924150000093505,graphs/graph32b.png,NA,NA,NA,4,NA,graphs/graph32.png,2020.1.2,NA,0,0.17994999990332872,space,1.1853699999628589,NA,NA,0.5500289863074205,NA,12.904383333333334
﻿U_graphs_1,NA,31,NA,2020-06-17_15h27.17.403,Ba(Hons),0.6937958949867491,NA,NA,NA,2020-06-17_15h27.17.403,0.32260724933745577,NA,NA,6,NA,6,NA,NA,NA,NA,MacIntel,NA,NA,NA,NA,2,60,1,NA,U_graphs_1,NA,2.5744399999966845,5ee91448dd71c9291b822a9d,NA,Male,1.5766800000565127,graphs/graph36b.png,NA,NA,NA,8,NA,graphs/graph36.png,2020.1.2,NA,0,0.33762500004377216,space,0.789479999919422,NA,NA,0.6796909507508834,NA,12.904383333333334
﻿U_graphs_1,NA,31,NA,2020-06-17_15h27.17.403,Ba(Hons),0.4007149955830388,NA,NA,NA,2020-06-17_15h27.17.403,0.41783071996466425,NA,NA,7,NA,7,NA,NA,NA,NA,MacIntel,NA,NA,NA,NA,2,60,1,NA,U_graphs_1,NA,2.8738449999364093,5ee91448dd71c9291b822a9d,NA,Male,1.9088950000004843,graphs/graph34b.png,NA,NA,NA,6,NA,graphs/graph34.png,2020.1.2,NA,0,4.99954499991145,space,0.9065949999494478,NA,NA,0.3859716624337456,NA,12.904383333333334
﻿U_graphs_1,NA,31,NA,2020-06-17_15h27.17.403,Ba(Hons),0.4067106752429328,NA,NA,NA,2020-06-17_15h27.17.403,0.38497094467756177,NA,NA,8,NA,8,NA,NA,NA,NA,MacIntel,NA,NA,NA,NA,2,60,1,NA,U_graphs_1,NA,2.8286550000775605,5ee91448dd71c9291b822a9d,NA,Male,1.842449999996461,graphs/graph31b.png,NA,NA,NA,3,NA,graphs/graph31.png,2020.1.2,NA,0,0.978984999936074,space,1.043140000081621,NA,NA,0.5319556785556536,NA,12.904383333333334
﻿U_graphs_1,NA,31,NA,2020-06-17_15h27.17.403,Ba(Hons),NA,NA,3,NA,2020-06-17_15h27.17.403,NA,NA,NA,NA,NA,NA,The following graphs show the number of live music performances held per year in different cities. The data are taken from 24 venues in each city.,NA,NA,NA,MacIntel,NA,1,NA,NA,2,60,NA,0,U_graphs_1,NA,NA,5ee91448dd71c9291b822a9d,NA,Male,NA,NA,NA,NA,3,NA,NA,NA,2020.1.2,NA,NA,NA,NA,NA,3,NA,NA,lists/performances_block.csv,12.904383333333334
﻿U_graphs_1,NA,31,NA,2020-06-17_15h27.17.403,Ba(Hons),0.6277571499558303,NA,NA,NA,2020-06-17_15h27.17.403,0.48263582155477025,NA,NA,0,NA,0,NA,NA,NA,NA,MacIntel,NA,NA,NA,NA,2,60,1,NA,U_graphs_1,NA,2.9264449999900535,5ee91448dd71c9291b822a9d,NA,Male,1.8260950000258163,graphs/graph59b.png,NA,NA,NA,4,NA,graphs/graph59.png,2020.1.2,NA,0,0.16750500001944602,space,1.0112150000641122,NA,NA,0.44666174359540634,NA,12.904383333333334
﻿U_graphs_1,NA,31,NA,2020-06-17_15h27.17.403,Ba(Hons),0.3739026612190812,NA,NA,NA,2020-06-17_15h27.17.403,0.31636139023851584,NA,NA,1,NA,1,NA,NA,NA,NA,MacIntel,NA,NA,NA,NA,2,60,1,NA,U_graphs_1,NA,2.7749400000320747,5ee91448dd71c9291b822a9d,NA,Male,1.9810149999102578,graphs/graph61b.png,NA,NA,NA,6,NA,graphs/graph61.png,2020.1.2,NA,0,0.2141449999762699,space,0.9749850000953302,NA,NA,0.7460230096068905,NA,12.904383333333334
﻿U_graphs_1,NA,31,NA,2020-06-17_15h27.17.403,Ba(Hons),0.6223567248233215,NA,NA,NA,2020-06-17_15h27.17.403,0.665862066585689,NA,NA,2,NA,2,NA,NA,NA,NA,MacIntel,NA,NA,NA,NA,2,60,1,NA,U_graphs_1,NA,2.6087000000989065,5ee91448dd71c9291b822a9d,NA,Male,1.6971200000261888,graphs/graph55b.png,NA,NA,NA,0,NA,graphs/graph55.png,2020.1.2,NA,0,0.3342600000323728,space,0.8882799999555573,NA,NA,0.762224285004417,NA,12.904383333333334
﻿U_graphs_1,NA,31,NA,2020-06-17_15h27.17.403,Ba(Hons),0.27691930764134276,NA,NA,NA,2020-06-17_15h27.17.403,0.3319242767226148,NA,NA,3,NA,3,NA,NA,NA,NA,MacIntel,NA,NA,NA,NA,2,60,1,NA,U_graphs_1,NA,2.0746050000889227,5ee91448dd71c9291b822a9d,NA,Male,1.3519850000739098,graphs/graph62b.png,NA,NA,NA,7,NA,graphs/graph62.png,2020.1.2,NA,0,0.16790999996010214,space,0.6094649999868125,NA,NA,0.3354354157464664,NA,12.904383333333334
﻿U_graphs_1,NA,31,NA,2020-06-17_15h27.17.403,Ba(Hons),0.3234268026722614,NA,NA,NA,2020-06-17_15h27.17.403,0.41941806537102466,NA,NA,4,NA,4,NA,NA,NA,NA,MacIntel,NA,NA,NA,NA,2,60,1,NA,U_graphs_1,NA,2.8430100000696257,5ee91448dd71c9291b822a9d,NA,Male,1.831624999991618,graphs/graph56b.png,NA,NA,NA,1,NA,graphs/graph56.png,2020.1.2,NA,0,0.17821000004187226,space,1.074765000026673,NA,NA,0.5894020538869258,NA,12.904383333333334
﻿U_graphs_1,NA,31,NA,2020-06-17_15h27.17.403,Ba(Hons),0.6450540387588339,NA,NA,NA,2020-06-17_15h27.17.403,0.3870327683303887,NA,NA,5,NA,5,NA,NA,NA,NA,MacIntel,NA,NA,NA,NA,2,60,1,NA,U_graphs_1,NA,3.08698500005994,5ee91448dd71c9291b822a9d,NA,Male,2.123355000047013,graphs/graph60b.png,NA,NA,NA,5,NA,graphs/graph60.png,2020.1.2,NA,0,0.43472499994095415,space,1.3520900000585243,NA,NA,0.5712165967314488,NA,12.904383333333334
﻿U_graphs_1,NA,31,NA,2020-06-17_15h27.17.403,Ba(Hons),0.23224933745583032,NA,NA,NA,2020-06-17_15h27.17.403,0.3675532795936396,NA,NA,6,NA,6,NA,NA,NA,NA,MacIntel,NA,NA,NA,NA,2,60,1,NA,U_graphs_1,NA,3.7395549999782816,5ee91448dd71c9291b822a9d,NA,Male,2.7970199999399483,graphs/graph57b.png,NA,NA,NA,2,NA,graphs/graph57.png,2020.1.2,NA,0,0.814295000047423,space,1.7523049999726936,NA,NA,0.2953204367270318,NA,12.904383333333334
﻿U_graphs_1,NA,31,NA,2020-06-17_15h27.17.403,Ba(Hons),0.2592083287323321,NA,NA,NA,2020-06-17_15h27.17.403,0.2166088090768551,NA,NA,7,NA,7,NA,NA,NA,NA,MacIntel,NA,NA,NA,NA,2,60,1,NA,U_graphs_1,NA,2.675425000023097,5ee91448dd71c9291b822a9d,NA,Male,1.808335000067018,graphs/graph58b.png,NA,NA,NA,3,NA,graphs/graph58.png,2020.1.2,NA,0,0.27191999997012317,space,0.8574999999254942,NA,NA,0.18776915856890453,NA,12.904383333333334
﻿U_graphs_1,NA,31,NA,2020-06-17_15h27.17.403,Ba(Hons),0.5711907160998233,NA,NA,NA,2020-06-17_15h27.17.403,0.5689563549028268,NA,NA,8,NA,8,NA,NA,NA,NA,MacIntel,NA,NA,NA,NA,2,60,1,NA,U_graphs_1,NA,3.503749999916181,5ee91448dd71c9291b822a9d,NA,Male,1.9791999999433756,graphs/graph63b.png,NA,NA,NA,8,NA,graphs/graph63.png,2020.1.2,NA,0,0.47175000002607703,space,0.9436149999964982,NA,NA,0.5616666436616607,NA,12.904383333333334
﻿U_graphs_1,NA,31,NA,2020-06-17_15h27.17.403,Ba(Hons),NA,NA,4,NA,2020-06-17_15h27.17.403,NA,NA,NA,NA,NA,NA,The following graphs show the average trip length for 24 taxi drivers in various cities.,NA,NA,NA,MacIntel,NA,1,NA,NA,2,60,NA,0,U_graphs_1,NA,NA,5ee91448dd71c9291b822a9d,NA,Male,NA,NA,NA,NA,4,NA,NA,NA,2020.1.2,NA,NA,NA,NA,NA,6,NA,NA,lists/taxi_block.csv,12.904383333333334
﻿U_graphs_1,NA,31,NA,2020-06-17_15h27.17.403,Ba(Hons),0.7189950033127208,NA,NA,NA,2020-06-17_15h27.17.403,0.6564328897968198,NA,NA,0,NA,0,NA,NA,NA,NA,MacIntel,NA,NA,NA,NA,2,60,1,NA,U_graphs_1,NA,2.54199499997776,5ee91448dd71c9291b822a9d,NA,Male,1.7595300000393763,graphs/graph46b.png,NA,NA,NA,0,NA,graphs/graph46.png,2020.1.2,NA,0,0.16734500008169562,space,0.9420350000727922,NA,NA,0.6018333839443463,NA,12.904383333333334
﻿U_graphs_1,NA,31,NA,2020-06-17_15h27.17.403,Ba(Hons),0.5137184601369258,NA,NA,NA,2020-06-17_15h27.17.403,0.43105572272526493,NA,NA,1,NA,1,NA,NA,NA,NA,MacIntel,NA,NA,NA,NA,2,60,1,NA,U_graphs_1,NA,2.6578049999661744,5ee91448dd71c9291b822a9d,NA,Male,1.8427099999971688,graphs/graph49b.png,NA,NA,NA,3,NA,graphs/graph49.png,2020.1.2,NA,0,0.26679499994497746,space,0.9775950000621378,NA,NA,0.4754410059628975,NA,12.904383333333334
﻿U_graphs_1,NA,31,NA,2020-06-17_15h27.17.403,Ba(Hons),0.5972525121466431,NA,NA,NA,2020-06-17_15h27.17.403,0.4120765928666077,NA,NA,2,NA,2,NA,NA,NA,NA,MacIntel,NA,NA,NA,NA,2,60,1,NA,U_graphs_1,NA,2.579564999905415,5ee91448dd71c9291b822a9d,NA,Male,1.7188449999084696,graphs/graph54b.png,NA,NA,NA,8,NA,graphs/graph54.png,2020.1.2,NA,0,0.24284500000067055,space,0.9282099999254569,NA,NA,0.5088874089001767,NA,12.904383333333334
﻿U_graphs_1,NA,31,NA,2020-06-17_15h27.17.403,Ba(Hons),0.7442976341651943,NA,NA,NA,2020-06-17_15h27.17.403,0.30833839443462896,NA,NA,3,NA,3,NA,NA,NA,NA,MacIntel,NA,NA,NA,NA,2,60,1,NA,U_graphs_1,NA,3.193980000098236,5ee91448dd71c9291b822a9d,NA,Male,2.0251200000056997,graphs/graph53b.png,NA,NA,NA,7,NA,graphs/graph53.png,2020.1.2,NA,0,0.2055199999595061,space,1.198960000067018,NA,NA,0.2388834060291518,NA,12.904383333333334
﻿U_graphs_1,NA,31,NA,2020-06-17_15h27.17.403,Ba(Hons),0.4482577158789752,NA,NA,NA,2020-06-17_15h27.17.403,0.2549811589001767,NA,NA,4,NA,4,NA,NA,NA,NA,MacIntel,NA,NA,NA,NA,2,60,1,NA,U_graphs_1,NA,3.3594949999824166,5ee91448dd71c9291b822a9d,NA,Male,2.363950000028126,graphs/graph51b.png,NA,NA,NA,5,NA,graphs/graph51.png,2020.1.2,NA,0,0.18321000004652888,space,1.475279999896884,NA,NA,0.3840996300795052,NA,12.904383333333334
﻿U_graphs_1,NA,31,NA,2020-06-17_15h27.17.403,Ba(Hons),0.6519555405256183,NA,NA,NA,2020-06-17_15h27.17.403,0.3532671709363957,NA,NA,5,NA,5,NA,NA,NA,NA,MacIntel,NA,NA,NA,NA,2,60,1,NA,U_graphs_1,NA,2.6518299999879673,5ee91448dd71c9291b822a9d,NA,Male,1.753400000045076,graphs/graph47b.png,NA,NA,NA,1,NA,graphs/graph47.png,2020.1.2,NA,0,0.24510499997995794,space,1.1078050000360236,NA,NA,0.46385510987190814,NA,12.904383333333334
﻿U_graphs_1,NA,31,NA,2020-06-17_15h27.17.403,Ba(Hons),0.6246601010379859,NA,NA,NA,2020-06-17_15h27.17.403,0.540668824536219,NA,NA,6,NA,6,NA,NA,NA,NA,MacIntel,NA,NA,NA,NA,2,60,1,NA,U_graphs_1,NA,2.7409300000872463,5ee91448dd71c9291b822a9d,NA,Male,1.926175000029616,graphs/graph52b.png,NA,NA,NA,6,NA,graphs/graph52.png,2020.1.2,NA,0,0.18056499992962927,space,1.0529000000096858,NA,NA,0.30235134165194344,NA,12.904383333333334
﻿U_graphs_1,NA,31,NA,2020-06-17_15h27.17.403,Ba(Hons),0.613100085578622,NA,NA,NA,2020-06-17_15h27.17.403,0.37621466431095407,NA,NA,7,NA,7,NA,NA,NA,NA,MacIntel,NA,NA,NA,NA,2,60,1,NA,U_graphs_1,NA,2.827210000017658,5ee91448dd71c9291b822a9d,NA,Male,1.9276949999621138,graphs/graph48b.png,NA,NA,NA,2,NA,graphs/graph48.png,2020.1.2,NA,0,3.9838149999268353,space,1.045685000019148,NA,NA,0.6557772471289752,NA,12.904383333333334
﻿U_graphs_1,NA,31,NA,2020-06-17_15h27.17.403,Ba(Hons),0.2284966458701413,NA,NA,NA,2020-06-17_15h27.17.403,0.6199411992049471,NA,NA,8,NA,8,NA,NA,NA,NA,MacIntel,NA,NA,NA,NA,2,60,1,NA,U_graphs_1,NA,2.3254350000061095,5ee91448dd71c9291b822a9d,NA,Male,1.535425000009127,graphs/graph50b.png,NA,NA,NA,4,NA,graphs/graph50.png,2020.1.2,NA,0,0.1476349999429658,space,0.7917700000107288,NA,NA,0.5748571389134276,NA,12.904383333333334
﻿U_graphs_1,NA,31,NA,2020-06-17_15h27.17.403,Ba(Hons),NA,NA,5,NA,2020-06-17_15h27.17.403,NA,NA,NA,NA,NA,NA,"The following graphs show the proportion of delayed trains arriving into English train stations each month, over a 24 month period.",NA,NA,NA,MacIntel,NA,1,NA,NA,2,60,NA,0,U_graphs_1,NA,NA,5ee91448dd71c9291b822a9d,NA,Male,NA,NA,NA,NA,5,NA,NA,NA,2020.1.2,NA,NA,NA,NA,NA,5,NA,NA,lists/trains_block.csv,12.904383333333334
﻿U_graphs_1,NA,31,NA,2020-06-17_15h27.17.403,Ba(Hons),0.6464084584805654,NA,NA,NA,2020-06-17_15h27.17.403,0.6061209419169611,NA,NA,0,NA,0,NA,NA,NA,NA,MacIntel,NA,NA,NA,NA,2,60,1,NA,U_graphs_1,NA,3.271500000031665,5ee91448dd71c9291b822a9d,NA,Male,2.210194999934174,graphs/graph15b.png,NA,NA,NA,5,NA,graphs/graph15.png,2020.1.2,NA,0,0.8250099999131635,space,1.3451849999837577,NA,NA,0.5933704174028268,NA,12.904383333333334
﻿U_graphs_1,NA,31,NA,2020-06-17_15h27.17.403,Ba(Hons),0.27697969578180204,NA,NA,NA,2020-06-17_15h27.17.403,0.3442865917623674,NA,NA,1,NA,1,NA,NA,NA,NA,MacIntel,NA,NA,NA,NA,2,60,1,NA,U_graphs_1,NA,3.157869999995455,5ee91448dd71c9291b822a9d,NA,Male,2.2971050000051036,graphs/graph13b.png,NA,NA,NA,3,NA,graphs/graph13.png,2020.1.2,NA,0,0.09994500002358109,space,1.490639999974519,NA,NA,0.6711762229461131,NA,12.904383333333334
﻿U_graphs_1,NA,31,NA,2020-06-17_15h27.17.403,Ba(Hons),0.6943738957597173,NA,NA,NA,2020-06-17_15h27.17.403,0.3881542623674912,NA,NA,2,NA,2,NA,NA,NA,NA,MacIntel,NA,NA,NA,NA,2,60,1,NA,U_graphs_1,NA,3.2244299999438226,5ee91448dd71c9291b822a9d,NA,Male,2.4764049999648705,graphs/graph12b.png,NA,NA,NA,2,NA,graphs/graph12.png,2020.1.2,NA,0,0.16635499999392778,space,1.4944350000005215,NA,NA,0.7047692827959364,NA,12.904383333333334
﻿U_graphs_1,NA,31,NA,2020-06-17_15h27.17.403,Ba(Hons),0.5971576164973498,NA,NA,NA,2020-06-17_15h27.17.403,0.41772719743816256,NA,NA,3,NA,3,NA,NA,NA,NA,MacIntel,NA,NA,NA,NA,2,60,1,NA,U_graphs_1,NA,2.2912299999734387,5ee91448dd71c9291b822a9d,NA,Male,1.5772499999729916,graphs/graph11b.png,NA,NA,NA,1,NA,graphs/graph11.png,2020.1.2,NA,0,0.23565499996766448,space,0.8101500000339001,NA,NA,0.42653523906802115,NA,12.904383333333334
﻿U_graphs_1,NA,31,NA,2020-06-17_15h27.17.403,Ba(Hons),0.5328097393992932,NA,NA,NA,2020-06-17_15h27.17.403,0.4422102749558303,NA,NA,4,NA,4,NA,NA,NA,NA,MacIntel,NA,NA,NA,NA,2,60,1,NA,U_graphs_1,NA,2.6778299999423325,5ee91448dd71c9291b822a9d,NA,Male,1.8945650000823662,graphs/graph16b.png,NA,NA,NA,6,NA,graphs/graph16.png,2020.1.2,NA,0,0.3736450000433251,space,1.1431749999755993,NA,NA,0.3484533734540636,NA,12.904383333333334
﻿U_graphs_1,NA,31,NA,2020-06-17_15h27.17.403,Ba(Hons),0.6667075005521201,NA,NA,NA,2020-06-17_15h27.17.403,0.5635041685070672,NA,NA,5,NA,5,NA,NA,NA,NA,MacIntel,NA,NA,NA,NA,2,60,1,NA,U_graphs_1,NA,3.4631150000495836,5ee91448dd71c9291b822a9d,NA,Male,1.6922199999680743,graphs/graph10b.png,NA,NA,NA,0,NA,graphs/graph10.png,2020.1.2,NA,0,0.14654999994672835,space,0.9897900000214577,NA,NA,0.4844819732773852,NA,12.904383333333334
﻿U_graphs_1,NA,31,NA,2020-06-17_15h27.17.403,Ba(Hons),0.522966472504417,NA,NA,NA,2020-06-17_15h27.17.403,0.3456927727473498,NA,NA,6,NA,6,NA,NA,NA,NA,MacIntel,NA,NA,NA,NA,2,60,1,NA,U_graphs_1,NA,3.3411850000265986,5ee91448dd71c9291b822a9d,NA,Male,2.441950000007637,graphs/graph18b.png,NA,NA,NA,8,NA,graphs/graph18.png,2020.1.2,NA,0,0.5371399999130517,space,1.7112099999794737,NA,NA,0.4688155642667844,NA,12.904383333333334
﻿U_graphs_1,NA,31,NA,2020-06-17_15h27.17.403,Ba(Hons),0.588686023078622,NA,NA,NA,2020-06-17_15h27.17.403,0.4011032050574205,NA,NA,7,NA,7,NA,NA,NA,NA,MacIntel,NA,NA,NA,NA,2,60,1,NA,U_graphs_1,NA,2.608765000011772,5ee91448dd71c9291b822a9d,NA,Male,1.5793650000123307,graphs/graph17b.png,NA,NA,NA,7,NA,graphs/graph17.png,2020.1.2,NA,0,0.2004600000800565,space,0.875510000041686,NA,NA,0.4929104323100706,NA,12.904383333333334
﻿U_graphs_1,NA,31,NA,2020-06-17_15h27.17.403,Ba(Hons),0.27188983822879853,NA,NA,NA,2020-06-17_15h27.17.403,0.4964560788427561,NA,NA,8,NA,8,NA,NA,NA,NA,MacIntel,NA,NA,NA,NA,2,60,1,NA,U_graphs_1,NA,2.901494999998249,5ee91448dd71c9291b822a9d,NA,Male,2.145355000044219,graphs/graph14b.png,NA,NA,NA,4,NA,graphs/graph14.png,2020.1.2,NA,0,0.3247400000691414,space,1.1748199999565259,NA,NA,0.5475703263030035,NA,12.904383333333334
﻿U_graphs_1,NA,31,NA,2020-06-17_15h27.17.403,Ba(Hons),NA,NA,6,NA,2020-06-17_15h27.17.403,NA,NA,NA,NA,NA,NA,The following graphs show how pupils' exam grades changed in one year. The data are taken from 24 pupils from each teacher's class.,NA,NA,NA,MacIntel,NA,1,NA,NA,2,60,NA,0,U_graphs_1,NA,NA,5ee91448dd71c9291b822a9d,NA,Male,NA,NA,NA,NA,6,NA,NA,NA,2020.1.2,NA,NA,NA,NA,NA,1,NA,NA,lists/teachers_block.csv,12.904383333333334
﻿U_graphs_1,NA,31,NA,2020-06-17_15h27.17.403,Ba(Hons),0.2571551319567138,NA,NA,NA,2020-06-17_15h27.17.403,0.36726859264575973,NA,NA,0,NA,0,NA,NA,NA,NA,MacIntel,NA,NA,NA,NA,2,60,1,NA,U_graphs_1,NA,2.300195000017993,5ee91448dd71c9291b822a9d,NA,Male,1.5709849999984726,graphs/graph19b.png,NA,NA,NA,0,NA,graphs/graph19.png,2020.1.2,NA,0,0.3400749999564141,space,0.7853700000559911,NA,NA,0.7162085219743817,NA,12.904383333333334
﻿U_graphs_1,NA,31,NA,2020-06-17_15h27.17.403,Ba(Hons),0.328965257840106,NA,NA,NA,2020-06-17_15h27.17.403,0.3954784811174912,NA,NA,1,NA,1,NA,NA,NA,NA,MacIntel,NA,NA,NA,NA,2,60,1,NA,U_graphs_1,NA,3.309750000014901,5ee91448dd71c9291b822a9d,NA,Male,1.6884550000540912,graphs/graph25b.png,NA,NA,NA,6,NA,graphs/graph25.png,2020.1.2,NA,0,0.7674149998929352,space,0.9543800000101328,NA,NA,0.6946068214443463,NA,12.904383333333334
﻿U_graphs_1,NA,31,NA,2020-06-17_15h27.17.403,Ba(Hons),0.27749730841431086,NA,NA,NA,2020-06-17_15h27.17.403,0.5011232194125441,NA,NA,2,NA,2,NA,NA,NA,NA,MacIntel,NA,NA,NA,NA,2,60,1,NA,U_graphs_1,NA,2.929954999941401,5ee91448dd71c9291b822a9d,NA,Male,2.1539900000207126,graphs/graph26b.png,NA,NA,NA,7,NA,graphs/graph26.png,2020.1.2,NA,0,0.36667499993927777,space,1.176065000006929,NA,NA,0.589048351921378,NA,12.904383333333334
﻿U_graphs_1,NA,31,NA,2020-06-17_15h27.17.403,Ba(Hons),0.5242691309628975,NA,NA,NA,2020-06-17_15h27.17.403,0.40153454891784446,NA,NA,3,NA,3,NA,NA,NA,NA,MacIntel,NA,NA,NA,NA,2,60,1,NA,U_graphs_1,NA,2.6232549999840558,5ee91448dd71c9291b822a9d,NA,Male,1.6748900000238791,graphs/graph22b.png,NA,NA,NA,3,NA,graphs/graph22.png,2020.1.2,NA,0,0.35680999991018325,space,0.811199999996461,NA,NA,0.42376601148409887,NA,12.904383333333334
﻿U_graphs_1,NA,31,NA,2020-06-17_15h27.17.403,Ba(Hons),0.6919756238957597,NA,NA,NA,2020-06-17_15h27.17.403,0.45232960192137805,NA,NA,4,NA,4,NA,NA,NA,NA,MacIntel,NA,NA,NA,NA,2,60,1,NA,U_graphs_1,NA,3.5661449999315664,5ee91448dd71c9291b822a9d,NA,Male,2.8800300000002608,graphs/graph24b.png,NA,NA,NA,5,NA,graphs/graph24.png,2020.1.2,NA,0,0.21911499998532236,space,1.2408849999774247,NA,NA,0.6117111583480566,NA,12.904383333333334
﻿U_graphs_1,NA,31,NA,2020-06-17_15h27.17.403,Ba(Hons),0.48666457321113077,NA,NA,NA,2020-06-17_15h27.17.403,0.3694598194567138,NA,NA,5,NA,5,NA,NA,NA,NA,MacIntel,NA,NA,NA,NA,2,60,1,NA,U_graphs_1,NA,2.6736800000071526,5ee91448dd71c9291b822a9d,NA,Male,1.918595000053756,graphs/graph20b.png,NA,NA,NA,1,NA,graphs/graph20.png,2020.1.2,NA,0,0.16736999992281199,space,1.1859900000272319,NA,NA,0.3979630217535335,NA,12.904383333333334
﻿U_graphs_1,NA,31,NA,2020-06-17_15h27.17.403,Ba(Hons),0.45843743098498235,NA,NA,NA,2020-06-17_15h27.17.403,0.43530014631183744,NA,NA,6,NA,6,NA,NA,NA,NA,MacIntel,NA,NA,NA,NA,2,60,1,NA,U_graphs_1,NA,2.574640000006184,5ee91448dd71c9291b822a9d,NA,Male,1.7584849999984726,graphs/graph27b.png,NA,NA,NA,8,NA,graphs/graph27.png,2020.1.2,NA,0,0.3050499999662861,space,0.9755600000498816,NA,NA,0.3415777523189045,NA,12.904383333333334
﻿U_graphs_1,NA,31,NA,2020-06-17_15h27.17.403,Ba(Hons),0.4140952821333922,NA,NA,NA,2020-06-17_15h27.17.403,0.27735065150176674,NA,NA,7,NA,7,NA,NA,NA,NA,MacIntel,NA,NA,NA,NA,2,60,1,NA,U_graphs_1,NA,2.244384999969043,5ee91448dd71c9291b822a9d,NA,Male,1.5923850000835955,graphs/graph23b.png,NA,NA,NA,4,NA,graphs/graph23.png,2020.1.2,NA,0,0.2838399999309331,space,0.8599799999501556,NA,NA,0.47015273023409887,NA,12.904383333333334
﻿U_graphs_1,NA,31,NA,2020-06-17_15h27.17.403,Ba(Hons),0.3905956686174912,NA,NA,NA,2020-06-17_15h27.17.403,0.4757084391563604,NA,NA,8,NA,8,NA,NA,NA,NA,MacIntel,NA,NA,NA,NA,2,60,1,NA,U_graphs_1,NA,2.3278550000395626,5ee91448dd71c9291b822a9d,NA,Male,1.6760200000135228,graphs/graph21b.png,NA,NA,NA,2,NA,graphs/graph21.png,2020.1.2,NA,0,0.20295499998610467,space,0.974724999978207,NA,NA,0.2944232414973498,NA,12.904383333333334
﻿U_graphs_1,5.166429999982938,31,NA,2020-06-17_15h27.17.403,Ba(Hons),NA,NA,NA,NA,2020-06-17_15h27.17.403,NA,NA,NA,NA,NA,NA,NA,NA,NA,NA,MacIntel,NA,NA,y,NA,2,60,NA,NA,U_graphs_1,NA,NA,5ee91448dd71c9291b822a9d,NA,Male,NA,NA,NA,NA,NA,NA,NA,NA,2020.1.2,NA,NA,NA,NA,NA,NA,NA,NA,NA,12.904383333333334
﻿U_graphs_1,NA,18,NA,2020-06-17_16h27.00.028,High School,NA,NA,NA,1,2020-06-17_16h27.00.028,NA,3.3872950000222772,0,NA,NA,NA,NA,NA,I confirm that I have read the study description for this study and have had the opportunity to consider the information.,1 of 5,Win32,0,NA,NA,NA,3,60,NA,NA,U_graphs_1,0,NA,5ee91448dd71c9291b822a9d,NA,Male,NA,NA,0,NA,NA,NA,NA,NA,2020.1.2,NA,NA,NA,NA,NA,NA,y,NA,NA,13.053083333333332
﻿U_graphs_1,NA,18,NA,2020-06-17_16h27.00.028,High School,NA,NA,NA,1,2020-06-17_16h27.00.028,NA,1.45691499998793,1,NA,NA,NA,NA,NA,"I understand that my participation in the study is voluntary and that I am free to withdraw at any time without giving a reason and without detriment to myself, but I will not be paid for the study.  I understand that it will not be possible to remove my data from the project once it has been anonymised and forms part of the data set.  
I agree to take part on this basis.",2 of 5,Win32,1,NA,NA,NA,3,60,NA,NA,U_graphs_1,1,NA,5ee91448dd71c9291b822a9d,NA,Male,NA,NA,0,NA,NA,NA,NA,NA,2020.1.2,NA,NA,NA,NA,NA,NA,y,NA,NA,13.053083333333332
﻿U_graphs_1,NA,18,NA,2020-06-17_16h27.00.028,High School,NA,NA,NA,1,2020-06-17_16h27.00.028,NA,1.4510200000368059,2,NA,NA,NA,NA,NA,"I understand that any data collected may be published in anonymous form in academic books, reports or journals. I understand that it will also be permanently stored in anonymous form in a public online repository, and may be used for future studies.",3 of 5,Win32,2,NA,NA,NA,3,60,NA,NA,U_graphs_1,2,NA,5ee91448dd71c9291b822a9d,NA,Male,NA,NA,0,NA,NA,NA,NA,NA,2020.1.2,NA,NA,NA,NA,NA,NA,y,NA,NA,13.053083333333332
﻿U_graphs_1,NA,18,NA,2020-06-17_16h27.00.028,High School,NA,NA,NA,1,2020-06-17_16h27.00.028,NA,0.10132499999599531,3,NA,NA,NA,NA,NA,"I understand that data collected during the study may be looked at by individuals from The University of Manchester or regulatory authorities, where it is relevant to my taking part in this research. I give permission for these individuals to have access to my data.",4 of 5,Win32,3,NA,NA,NA,3,60,NA,NA,U_graphs_1,3,NA,5ee91448dd71c9291b822a9d,NA,Male,NA,NA,0,NA,NA,NA,NA,NA,2020.1.2,NA,NA,NA,NA,NA,NA,y,NA,NA,13.053083333333332
﻿U_graphs_1,NA,18,NA,2020-06-17_16h27.00.028,High School,NA,NA,NA,1,2020-06-17_16h27.00.028,NA,0.4591249999939464,4,NA,NA,NA,NA,NA,I agree to take part in this study.,5 of 5,Win32,4,NA,NA,NA,3,60,NA,NA,U_graphs_1,4,NA,5ee91448dd71c9291b822a9d,NA,Male,NA,NA,0,NA,NA,NA,NA,NA,2020.1.2,NA,NA,NA,NA,NA,NA,y,NA,NA,13.053083333333332
﻿U_graphs_1,NA,18,NA,2020-06-17_16h27.00.028,High School,NA,"This graph shows the average amount of 
 rainfall per day in Edinburgh for one month",NA,NA,2020-06-17_16h27.00.028,NA,NA,NA,NA,tutorial_and_prac_graphs/tut1.png,NA,NA,0,NA,NA,Win32,NA,NA,NA,0,3,60,NA,NA,U_graphs_1,NA,NA,5ee91448dd71c9291b822a9d,0,Male,NA,NA,NA,NA,NA,NA,0,NA,2020.1.2,1,NA,NA,NA,NA,NA,NA,NA,NA,13.053083333333332
﻿U_graphs_1,NA,18,NA,2020-06-17_16h27.00.028,High School,NA,"The average amount of rainfall per day 
 was just over 5 mm",NA,NA,2020-06-17_16h27.00.028,NA,NA,NA,NA,tutorial_and_prac_graphs/tut1.png,NA,NA,1,NA,NA,Win32,NA,NA,NA,1,3,60,NA,NA,U_graphs_1,NA,NA,5ee91448dd71c9291b822a9d,0,Male,NA,NA,NA,NA,NA,NA,1,NA,2020.1.2,1,NA,NA,NA,NA,NA,NA,NA,NA,13.053083333333332
﻿U_graphs_1,NA,18,NA,2020-06-17_16h27.00.028,High School,NA,"That average is calculated using the 
 rainfall from all 30 days in that month",NA,NA,2020-06-17_16h27.00.028,NA,NA,NA,NA,tutorial_and_prac_graphs/tut2.png,NA,NA,2,NA,NA,Win32,NA,NA,NA,2,3,60,NA,NA,U_graphs_1,NA,NA,5ee91448dd71c9291b822a9d,0,Male,NA,NA,NA,NA,NA,NA,2,NA,2020.1.2,1,NA,NA,NA,NA,NA,NA,NA,NA,13.053083333333332
﻿U_graphs_1,NA,18,NA,2020-06-17_16h27.00.028,High School,NA,"That average is calculated using the 
 rainfall from all 30 days in that month",NA,NA,2020-06-17_16h27.00.028,NA,NA,NA,NA,tutorial_and_prac_graphs/tut3.png,NA,NA,3,NA,NA,Win32,NA,NA,NA,3,3,60,NA,NA,U_graphs_1,NA,NA,5ee91448dd71c9291b822a9d,0,Male,NA,NA,NA,NA,NA,NA,3,NA,2020.1.2,1,NA,NA,NA,NA,NA,NA,NA,NA,13.053083333333332
﻿U_graphs_1,NA,18,NA,2020-06-17_16h27.00.028,High School,NA,"That average is calculated using the 
 rainfall from all 30 days in that month",NA,NA,2020-06-17_16h27.00.028,NA,NA,NA,NA,tutorial_and_prac_graphs/tut4.png,NA,NA,4,NA,NA,Win32,NA,NA,NA,4,3,60,NA,NA,U_graphs_1,NA,NA,5ee91448dd71c9291b822a9d,0,Male,NA,NA,NA,NA,NA,NA,4,NA,2020.1.2,1,NA,NA,NA,NA,NA,NA,NA,NA,13.053083333333332
﻿U_graphs_1,NA,18,NA,2020-06-17_16h27.00.028,High School,NA,"That average is calculated using the 
 rainfall from all 30 days in that month",NA,NA,2020-06-17_16h27.00.028,NA,NA,NA,NA,tutorial_and_prac_graphs/tut5.png,NA,NA,5,NA,NA,Win32,NA,NA,NA,5,3,60,NA,NA,U_graphs_1,NA,NA,5ee91448dd71c9291b822a9d,0,Male,NA,NA,NA,NA,NA,NA,5,NA,2020.1.2,1,NA,NA,NA,NA,NA,NA,NA,NA,13.053083333333332
﻿U_graphs_1,NA,18,NA,2020-06-17_16h27.00.028,High School,NA,"The red circle shows the average for 
 the whole month",NA,NA,2020-06-17_16h27.00.028,NA,NA,NA,NA,tutorial_and_prac_graphs/tut6.png,NA,NA,6,NA,NA,Win32,NA,NA,NA,6,3,60,NA,NA,U_graphs_1,NA,NA,5ee91448dd71c9291b822a9d,0,Male,NA,NA,NA,NA,NA,NA,6,NA,2020.1.2,1,NA,NA,NA,NA,NA,NA,NA,NA,13.053083333333332
﻿U_graphs_1,NA,18,NA,2020-06-17_16h27.00.028,High School,0.4252715737949786,NA,NA,NA,2020-06-17_16h27.00.028,0.2567726986958334,NA,NA,0,NA,0,NA,NA,NA,NA,Win32,NA,NA,NA,NA,3,60,1,NA,U_graphs_1,NA,3.664924999990035,5ee91448dd71c9291b822a9d,NA,Male,2.57416000001831,graphs/graph18b.png,NA,NA,NA,8,NA,graphs/graph18.png,2020.1.2,NA,0,0.5515199999790639,space,1.9017149999854155,NA,NA,0.49725164366773156,NA,13.053083333333332
﻿U_graphs_1,NA,18,NA,2020-06-17_16h27.00.028,High School,0.5970422844349472,NA,NA,NA,2020-06-17_16h27.00.028,0.24204946996466425,NA,NA,1,NA,1,NA,NA,NA,NA,Win32,NA,NA,NA,NA,3,60,1,NA,U_graphs_1,NA,3.55671999999322,5ee91448dd71c9291b822a9d,NA,Male,2.675924999988638,graphs/graph17b.png,NA,NA,NA,7,NA,graphs/graph17.png,2020.1.2,NA,0,0.40362500003539026,space,1.8168799999984913,NA,NA,0.42363562482203065,NA,13.053083333333332
﻿U_graphs_1,NA,18,NA,2020-06-17_16h27.00.028,High School,0.3418400483268076,NA,NA,NA,2020-06-17_16h27.00.028,0.2682240294811067,NA,NA,2,NA,2,NA,NA,NA,NA,Win32,NA,NA,NA,NA,3,60,1,NA,U_graphs_1,NA,5.082440000027418,5ee91448dd71c9291b822a9d,NA,Male,4.240939999988768,graphs/graph13b.png,NA,NA,NA,3,NA,graphs/graph13.png,2020.1.2,NA,0,2.6242700000293553,space,1.2432499999995343,NA,NA,0.6902891917154437,NA,13.053083333333332
﻿U_graphs_1,NA,18,NA,2020-06-17_16h27.00.028,High School,0.6035858931115217,NA,NA,NA,2020-06-17_16h27.00.028,0.587226777812477,NA,NA,3,NA,3,NA,NA,NA,NA,Win32,NA,NA,NA,NA,3,60,1,NA,U_graphs_1,NA,2.7862699999823235,5ee91448dd71c9291b822a9d,NA,Male,2.133655000012368,graphs/graph15b.png,NA,NA,NA,5,NA,graphs/graph15.png,2020.1.2,NA,0,0.9201149999862537,space,1.0174300000071526,NA,NA,0.6722941898485235,NA,13.053083333333332
﻿U_graphs_1,NA,18,NA,2020-06-17_16h27.00.028,High School,0.5496008251056888,NA,NA,NA,2020-06-17_16h27.00.028,0.4170920161454563,NA,NA,4,NA,4,NA,NA,NA,NA,Win32,NA,NA,NA,NA,3,60,1,NA,U_graphs_1,NA,2.9307649999973364,5ee91448dd71c9291b822a9d,NA,Male,3.8687800000188872,graphs/graph11b.png,NA,NA,NA,1,NA,graphs/graph11.png,2020.1.2,NA,0,1.0729699999792501,space,1.304550000000745,NA,NA,0.3729223923570213,NA,13.053083333333332
﻿U_graphs_1,NA,18,NA,2020-06-17_16h27.00.028,High School,0.6084936152202205,NA,NA,NA,2020-06-17_16h27.00.028,0.6084936152202205,NA,NA,5,NA,5,NA,NA,NA,NA,Win32,NA,NA,NA,NA,3,60,1,NA,U_graphs_1,NA,2.958359999989625,5ee91448dd71c9291b822a9d,NA,Male,2.0751450000097975,graphs/graph16b.png,NA,NA,NA,6,NA,graphs/graph16.png,2020.1.2,NA,0,0.39191499998560175,space,1.1887800000258721,NA,NA,0.3402041617589321,NA,13.053083333333332
﻿U_graphs_1,NA,18,NA,2020-06-17_16h27.00.028,High School,0.6199450084105662,NA,NA,NA,2020-06-17_16h27.00.028,0.6117654507610439,NA,NA,6,NA,6,NA,NA,NA,NA,Win32,NA,NA,NA,NA,3,60,1,NA,U_graphs_1,NA,2.623540000000503,5ee91448dd71c9291b822a9d,NA,Male,1.943039999983739,graphs/graph10b.png,NA,NA,NA,0,NA,graphs/graph10.png,2020.1.2,NA,0,0.45855500001925975,space,1.0407600000035018,NA,NA,0.3271168820007109,NA,13.053083333333332
﻿U_graphs_1,NA,18,NA,2020-06-17_16h27.00.028,High School,0.7099201425553117,NA,NA,NA,2020-06-17_16h27.00.028,0.35656327705797675,NA,NA,7,NA,7,NA,NA,NA,NA,Win32,NA,NA,NA,NA,3,60,1,NA,U_graphs_1,NA,2.7081100000068545,5ee91448dd71c9291b822a9d,NA,Male,1.724019999965094,graphs/graph12b.png,NA,NA,NA,2,NA,graphs/graph12.png,2020.1.2,NA,0,0.35967999999411404,space,0.8852199999964796,NA,NA,0.7033765338787373,NA,13.053083333333332
﻿U_graphs_1,NA,18,NA,2020-06-17_16h27.00.028,High School,0.2960344755654247,NA,NA,NA,2020-06-17_16h27.00.028,0.5774113335950792,NA,NA,8,NA,8,NA,NA,NA,NA,Win32,NA,NA,NA,NA,3,60,1,NA,U_graphs_1,NA,2.6168199999956414,5ee91448dd71c9291b822a9d,NA,Male,1.9417750000138767,graphs/graph14b.png,NA,NA,NA,4,NA,graphs/graph14.png,2020.1.2,NA,0,0.22283000004244968,space,1.1682950000395067,NA,NA,0.5561444961873356,NA,13.053083333333332
﻿U_graphs_1,NA,18,NA,2020-06-17_16h27.00.028,High School,NA,NA,0,NA,2020-06-17_16h27.00.028,NA,NA,NA,NA,NA,NA,The following graphs show how pupils' exam grades changed in one year. The data are taken from 24 pupils from each teacher's class.,NA,NA,NA,Win32,NA,1,NA,NA,3,60,NA,0,U_graphs_1,NA,NA,5ee91448dd71c9291b822a9d,NA,Male,NA,NA,NA,NA,0,NA,NA,NA,2020.1.2,NA,NA,NA,NA,NA,1,NA,NA,lists/teachers_block.csv,13.053083333333332
﻿U_graphs_1,NA,18,NA,2020-06-17_16h27.00.028,High School,0.7328229289360031,NA,NA,NA,2020-06-17_16h27.00.028,0.2633162449673354,NA,NA,0,NA,0,NA,NA,NA,NA,Win32,NA,NA,NA,NA,3,60,1,NA,U_graphs_1,NA,3.410840000025928,5ee91448dd71c9291b822a9d,NA,Male,2.356755000015255,graphs/graph53b.png,NA,NA,NA,7,NA,graphs/graph53.png,2020.1.2,NA,0,0.7703099999926053,space,1.1107699999702163,NA,NA,0.24532124310041525,NA,13.053083333333332
﻿U_graphs_1,NA,18,NA,2020-06-17_16h27.00.028,High School,0.6575709611173544,NA,NA,NA,2020-06-17_16h27.00.028,0.24859314104631114,NA,NA,1,NA,1,NA,NA,NA,NA,Win32,NA,NA,NA,NA,3,60,1,NA,U_graphs_1,NA,3.003175000019837,5ee91448dd71c9291b822a9d,NA,Male,1.740410000027623,graphs/graph48b.png,NA,NA,NA,2,NA,graphs/graph48.png,2020.1.2,NA,0,0.7258099999744445,space,0.9439600000041537,NA,NA,0.6346682371417354,NA,13.053083333333332
﻿U_graphs_1,NA,18,NA,2020-06-17_16h27.00.028,High School,0.762269323993269,NA,NA,NA,2020-06-17_16h27.00.028,0.364742834707499,NA,NA,2,NA,2,NA,NA,NA,NA,Win32,NA,NA,NA,NA,3,60,1,NA,U_graphs_1,NA,2.700085000018589,5ee91448dd71c9291b822a9d,NA,Male,1.8273599999956787,graphs/graph47b.png,NA,NA,NA,1,NA,graphs/graph47.png,2020.1.2,NA,0,0.33783000003313646,space,1.0546099999919534,NA,NA,0.3663787212753745,NA,13.053083333333332
﻿U_graphs_1,NA,18,NA,2020-06-17_16h27.00.028,High School,0.32548093302776293,NA,NA,NA,2020-06-17_16h27.00.028,0.33529643965023315,NA,NA,3,NA,3,NA,NA,NA,NA,Win32,NA,NA,NA,NA,3,60,1,NA,U_graphs_1,NA,3.068894999974873,5ee91448dd71c9291b822a9d,NA,Male,2.2462800000212155,graphs/graph54b.png,NA,NA,NA,8,NA,graphs/graph54.png,2020.1.2,NA,0,0.4444950000033714,space,1.3914949999889359,NA,NA,0.3402041617589321,NA,13.053083333333332
﻿U_graphs_1,NA,18,NA,2020-06-17_16h27.00.028,High School,0.3958251163326404,NA,NA,NA,2020-06-17_16h27.00.028,0.384373785547367,NA,NA,4,NA,4,NA,NA,NA,NA,Win32,NA,NA,NA,NA,3,60,1,NA,U_graphs_1,NA,2.3676400000113063,5ee91448dd71c9291b822a9d,NA,Male,1.6924899999867193,graphs/graph49b.png,NA,NA,NA,3,NA,graphs/graph49.png,2020.1.2,NA,0,6.983955000003334,space,0.9601050000055693,NA,NA,0.3958251163326404,NA,13.053083333333332
﻿U_graphs_1,NA,18,NA,2020-06-17_16h27.00.028,High School,0.8048029988087562,NA,NA,NA,2020-06-17_16h27.00.028,0.8195262275399252,NA,NA,5,NA,5,NA,NA,NA,NA,Win32,NA,NA,NA,NA,3,60,1,NA,U_graphs_1,NA,4.185705000010785,5ee91448dd71c9291b822a9d,NA,Male,3.4892100000288337,graphs/graph52b.png,NA,NA,NA,6,NA,graphs/graph52.png,2020.1.2,NA,0,0.3769150000298396,space,2.341290000011213,NA,NA,0.1831566798501325,NA,13.053083333333332
﻿U_graphs_1,NA,18,NA,2020-06-17_16h27.00.028,High School,0.7524538797758712,NA,NA,NA,2020-06-17_16h27.00.028,0.7573616018845701,NA,NA,6,NA,6,NA,NA,NA,NA,Win32,NA,NA,NA,NA,3,60,1,NA,U_graphs_1,NA,2.6824499999638647,5ee91448dd71c9291b822a9d,NA,Male,1.906989999988582,graphs/graph46b.png,NA,NA,NA,0,NA,graphs/graph46.png,2020.1.2,NA,0,0.33660499996040016,space,1.0675100000225939,NA,NA,0.5021593657764305,NA,13.053083333333332
﻿U_graphs_1,NA,18,NA,2020-06-17_16h27.00.028,High School,0.2600444718315844,NA,NA,NA,2020-06-17_16h27.00.028,0.24204946996466425,NA,NA,7,NA,7,NA,NA,NA,NA,Win32,NA,NA,NA,NA,3,60,1,NA,U_graphs_1,NA,2.4528149999678135,5ee91448dd71c9291b822a9d,NA,Male,1.7789550000452437,graphs/graph51b.png,NA,NA,NA,5,NA,graphs/graph51.png,2020.1.2,NA,0,0.2876549999928102,space,1.0907700000097975,NA,NA,0.387645558683118,NA,13.053083333333332
﻿U_graphs_1,NA,18,NA,2020-06-17_16h27.00.028,High School,0.2305980143692461,NA,NA,NA,2020-06-17_16h27.00.028,0.6117654507610439,NA,NA,8,NA,8,NA,NA,NA,NA,Win32,NA,NA,NA,NA,3,60,1,NA,U_graphs_1,NA,2.4867249999661,5ee91448dd71c9291b822a9d,NA,Male,1.4972199999610893,graphs/graph50b.png,NA,NA,NA,4,NA,graphs/graph50.png,2020.1.2,NA,0,0.461124999972526,space,0.7391999999526888,NA,NA,0.6117654507610439,NA,13.053083333333332
﻿U_graphs_1,NA,18,NA,2020-06-17_16h27.00.028,High School,NA,NA,1,NA,2020-06-17_16h27.00.028,NA,NA,NA,NA,NA,NA,"The following graphs show the proportion of delayed trains arriving into English train stations each month, over a 24 month period.",NA,NA,NA,Win32,NA,1,NA,NA,3,60,NA,0,U_graphs_1,NA,NA,5ee91448dd71c9291b822a9d,NA,Male,NA,NA,NA,NA,1,NA,NA,NA,2020.1.2,NA,NA,NA,NA,NA,5,NA,NA,lists/trains_block.csv,13.053083333333332
﻿U_graphs_1,NA,18,NA,2020-06-17_16h27.00.028,High School,0.6461196303320811,NA,NA,NA,2020-06-17_16h27.00.028,0.7933516680234828,NA,NA,0,NA,0,NA,NA,NA,NA,Win32,NA,NA,NA,NA,3,60,1,NA,U_graphs_1,NA,2.483104999992065,5ee91448dd71c9291b822a9d,NA,Male,1.7515499999863096,graphs/graph39b.png,NA,NA,NA,2,NA,graphs/graph39.png,2020.1.2,NA,0,0.35301500000059605,space,1.0414899999741465,NA,NA,0.6493914034678321,NA,13.053083333333332
﻿U_graphs_1,NA,18,NA,2020-06-17_16h27.00.028,High School,0.24041358339678875,NA,NA,NA,2020-06-17_16h27.00.028,0.48580025047738584,NA,NA,1,NA,1,NA,NA,NA,NA,Win32,NA,NA,NA,NA,3,60,1,NA,U_graphs_1,NA,3.03396500000963,5ee91448dd71c9291b822a9d,NA,Male,2.040740000025835,graphs/graph44b.png,NA,NA,NA,7,NA,graphs/graph44.png,2020.1.2,NA,0,0.4208999999682419,space,1.0859599999967031,NA,NA,0.46289752650176674,NA,13.053083333333332
﻿U_graphs_1,NA,18,NA,2020-06-17_16h27.00.028,High School,0.6935610272562671,NA,NA,NA,2020-06-17_16h27.00.028,0.5234262655892463,NA,NA,2,NA,2,NA,NA,NA,NA,Win32,NA,NA,NA,NA,3,60,1,NA,U_graphs_1,NA,2.7580000000307336,5ee91448dd71c9291b822a9d,NA,Male,1.9860150000313297,graphs/graph41b.png,NA,NA,NA,4,NA,graphs/graph41.png,2020.1.2,NA,0,0.5032849999843165,space,1.0125649999827147,NA,NA,0.5136107589667762,NA,13.053083333333332
﻿U_graphs_1,NA,18,NA,2020-06-17_16h27.00.028,High School,0.4710770841512891,NA,NA,NA,2020-06-17_16h27.00.028,0.47598480625998796,NA,NA,3,NA,3,NA,NA,NA,NA,Win32,NA,NA,NA,NA,3,60,1,NA,U_graphs_1,NA,3.3672749999677762,5ee91448dd71c9291b822a9d,NA,Male,1.8560799999977462,graphs/graph43b.png,NA,NA,NA,6,NA,graphs/graph43.png,2020.1.2,NA,0,0.5700549999601208,space,0.8697200000169687,NA,NA,0.7540897663437467,NA,13.053083333333332
﻿U_graphs_1,NA,18,NA,2020-06-17_16h27.00.028,High School,0.6624787456311257,NA,NA,NA,2020-06-17_16h27.00.028,0.6575709611173544,NA,NA,4,NA,4,NA,NA,NA,NA,Win32,NA,NA,NA,NA,3,60,1,NA,U_graphs_1,NA,3.448504999978468,5ee91448dd71c9291b822a9d,NA,Male,2.003644999989774,graphs/graph40b.png,NA,NA,NA,3,NA,graphs/graph40.png,2020.1.2,NA,0,0.8920849999994971,space,1.2734550000168383,NA,NA,0.3631068857345511,NA,13.053083333333332
﻿U_graphs_1,NA,18,NA,2020-06-17_16h27.00.028,High School,0.4890720860182092,NA,NA,NA,2020-06-17_16h27.00.028,0.7688129950749159,NA,NA,5,NA,5,NA,NA,NA,NA,Win32,NA,NA,NA,NA,3,60,1,NA,U_graphs_1,NA,3.7708550000097603,5ee91448dd71c9291b822a9d,NA,Male,1.7392749999999069,graphs/graph38b.png,NA,NA,NA,1,NA,graphs/graph38.png,2020.1.2,NA,0,0.9098999999696389,space,0.91890000004787,NA,NA,0.7655411595340924,NA,13.053083333333332
﻿U_graphs_1,NA,18,NA,2020-06-17_16h27.00.028,High School,0.7966234411592338,NA,NA,NA,2020-06-17_16h27.00.028,0.7393665376125775,NA,NA,6,NA,6,NA,NA,NA,NA,Win32,NA,NA,NA,NA,3,60,1,NA,U_graphs_1,NA,1.658019999973476,5ee91448dd71c9291b822a9d,NA,Male,1.1903349999920465,graphs/graph42b.png,NA,NA,NA,5,NA,graphs/graph42.png,2020.1.2,NA,0,0.27057500003138557,space,0.7251149999792688,NA,NA,0.8129825564582784,NA,13.053083333333332
﻿U_graphs_1,NA,18,NA,2020-06-17_16h27.00.028,High School,0.300942260079196,NA,NA,NA,2020-06-17_16h27.00.028,0.6608427966581778,NA,NA,7,NA,7,NA,NA,NA,NA,Win32,NA,NA,NA,NA,3,60,1,NA,U_graphs_1,NA,2.2209900000016205,5ee91448dd71c9291b822a9d,NA,Male,1.611380000016652,graphs/graph45b.png,NA,NA,NA,8,NA,graphs/graph45.png,2020.1.2,NA,0,0.2565300000132993,space,0.8871049999725074,NA,NA,0.3107577667016662,NA,13.053083333333332
﻿U_graphs_1,NA,18,NA,2020-06-17_16h27.00.028,High School,0.5348775963745197,NA,NA,NA,2020-06-17_16h27.00.028,0.5414212674561665,NA,NA,8,NA,8,NA,NA,NA,NA,Win32,NA,NA,NA,NA,3,60,1,NA,U_graphs_1,NA,6.818885000015143,5ee91448dd71c9291b822a9d,NA,Male,5.38701999996556,graphs/graph37b.png,NA,NA,NA,0,NA,graphs/graph37.png,2020.1.2,NA,0,0.6279450000147335,space,1.912659999972675,NA,NA,0.7115560915282596,NA,13.053083333333332
﻿U_graphs_1,NA,18,NA,2020-06-17_16h27.00.028,High School,NA,NA,2,NA,2020-06-17_16h27.00.028,NA,NA,NA,NA,NA,NA,The following graphs show teachers' performance. 24 pupils in each teacher's class were asked to rate their lesson out of 100.,NA,NA,NA,Win32,NA,1,NA,NA,3,60,NA,0,U_graphs_1,NA,NA,5ee91448dd71c9291b822a9d,NA,Male,NA,NA,NA,NA,2,NA,NA,NA,2020.1.2,NA,NA,NA,NA,NA,4,NA,NA,lists/teachers2_block.csv,13.053083333333332
﻿U_graphs_1,NA,18,NA,2020-06-17_16h27.00.028,High School,0.6379400726825588,NA,NA,NA,2020-06-17_16h27.00.028,0.3336604906772852,NA,NA,0,NA,0,NA,NA,NA,NA,Win32,NA,NA,NA,NA,3,60,1,NA,U_graphs_1,NA,2.6408250000094995,5ee91448dd71c9291b822a9d,NA,Male,1.7170449999975972,graphs/graph60b.png,NA,NA,NA,5,NA,graphs/graph60.png,2020.1.2,NA,0,0.34351500001503155,space,1.067849999992177,NA,NA,0.6248527305192652,NA,13.053083333333332
