__datetime,key_resp_done.keys,slider_2.response,Age *,block_name.thisRepN,study_id,slider_3.rt,expName,consent_form.thisRepN,tut_graph_image,key_resp_debrief.keys,Gender *,slider_1.rt,choose_blocks.ran,tutorial_loop.thisRepN,tutorial_loop.thisN,slider_2.rt,tut_text,participant,graph_image,key_resp_done.rt,frameRate,consent_form.thisIndex,tutorial_loop.thisIndex,slider_3.response,tutorial_loop.thisTrialN,slider_1.response,choose_blocks.thisRepN,Highest level of education completed so far (e.g~ High school/grade (US); GCSE/Secondary School (UK); A-Levels; Bachelor's degree etc~) *,date,block_name.thisTrialN,key_resp_consent.rt,blank_graph_image,block_file,key_resp_consent.keys,block_name.thisN,consent_form.thisN,choose_blocks.thisTrialN,tutorial_loop.ran,choose_blocks.thisIndex,key_resp_10.keys,consent_form.thisTrialN,new_questionText,psychopyVersion,intro_text,key_resp_10.rt,choose_blocks.thisN,block_name.ran,OS,consent_form.ran,__experimentName,block_name.thisIndex,consent_number,key_resp_debrief.rt
﻿2020-06-16_21h31.17.975,NA,NA,27,NA,5ee91448dd71c9291b822a9d,NA,U_graphs_1,0,NA,NA,Male,NA,NA,NA,NA,NA,NA,1,NA,NA,60,0,NA,NA,NA,NA,NA,Bachelor's degree (Healthcare science),2020-06-16_21h31.17.975,NA,3.0947550000273623,NA,NA,y,NA,0,NA,NA,NA,NA,0,I confirm that I have read the study description for this study and have had the opportunity to consider the information.,2020.1.2,NA,NA,NA,NA,Win32,1,U_graphs_1,NA,1 of 5,NA
﻿2020-06-16_21h31.17.975,NA,NA,27,NA,5ee91448dd71c9291b822a9d,NA,U_graphs_1,0,NA,NA,Male,NA,NA,NA,NA,NA,NA,1,NA,NA,60,1,NA,NA,NA,NA,NA,Bachelor's degree (Healthcare science),2020-06-16_21h31.17.975,NA,3.0906599999871105,NA,NA,y,NA,1,NA,NA,NA,NA,1,"I understand that my participation in the study is voluntary and that I am free to withdraw at any time without giving a reason and without detriment to myself, but I will not be paid for the study.  I understand that it will not be possible to remove my data from the project once it has been anonymised and forms part of the data set.  
I agree to take part on this basis.",2020.1.2,NA,NA,NA,NA,Win32,1,U_graphs_1,NA,2 of 5,NA
﻿2020-06-16_21h31.17.975,NA,NA,27,NA,5ee91448dd71c9291b822a9d,NA,U_graphs_1,0,NA,NA,Male,NA,NA,NA,NA,NA,NA,1,NA,NA,60,2,NA,NA,NA,NA,NA,Bachelor's degree (Healthcare science),2020-06-16_21h31.17.975,NA,1.8059099999954924,NA,NA,y,NA,2,NA,NA,NA,NA,2,"I understand that any data collected may be published in anonymous form in academic books, reports or journals. I understand that it will also be permanently stored in anonymous form in a public online repository, and may be used for future studies.",2020.1.2,NA,NA,NA,NA,Win32,1,U_graphs_1,NA,3 of 5,NA
﻿2020-06-16_21h31.17.975,NA,NA,27,NA,5ee91448dd71c9291b822a9d,NA,U_graphs_1,0,NA,NA,Male,NA,NA,NA,NA,NA,NA,1,NA,NA,60,3,NA,NA,NA,NA,NA,Bachelor's degree (Healthcare science),2020-06-16_21h31.17.975,NA,2.3971349999774247,NA,NA,y,NA,3,NA,NA,NA,NA,3,"I understand that data collected during the study may be looked at by individuals from The University of Manchester or regulatory authorities, where it is relevant to my taking part in this research. I give permission for these individuals to have access to my data.",2020.1.2,NA,NA,NA,NA,Win32,1,U_graphs_1,NA,4 of 5,NA
﻿2020-06-16_21h31.17.975,NA,NA,27,NA,5ee91448dd71c9291b822a9d,NA,U_graphs_1,0,NA,NA,Male,NA,NA,NA,NA,NA,NA,1,NA,NA,60,4,NA,NA,NA,NA,NA,Bachelor's degree (Healthcare science),2020-06-16_21h31.17.975,NA,0.5085850000032224,NA,NA,y,NA,4,NA,NA,NA,NA,4,I agree to take part in this study.,2020.1.2,NA,NA,NA,NA,Win32,1,U_graphs_1,NA,5 of 5,NA
﻿2020-06-16_21h31.17.975,NA,NA,27,NA,5ee91448dd71c9291b822a9d,NA,U_graphs_1,NA,tutorial_and_prac_graphs/tut1.png,NA,Male,NA,NA,0,0,NA,"This graph shows the average amount of 
 rainfall per day in Edinburgh for one month",1,NA,NA,60,NA,0,NA,0,NA,NA,Bachelor's degree (Healthcare science),2020-06-16_21h31.17.975,NA,NA,NA,NA,NA,NA,NA,NA,1,NA,NA,NA,NA,2020.1.2,NA,NA,NA,NA,Win32,NA,U_graphs_1,NA,NA,NA
﻿2020-06-16_21h31.17.975,NA,NA,27,NA,5ee91448dd71c9291b822a9d,NA,U_graphs_1,NA,tutorial_and_prac_graphs/tut1.png,NA,Male,NA,NA,0,1,NA,"The average amount of rainfall per day 
 was just over 5 mm",1,NA,NA,60,NA,1,NA,1,NA,NA,Bachelor's degree (Healthcare science),2020-06-16_21h31.17.975,NA,NA,NA,NA,NA,NA,NA,NA,1,NA,NA,NA,NA,2020.1.2,NA,NA,NA,NA,Win32,NA,U_graphs_1,NA,NA,NA
﻿2020-06-16_21h31.17.975,NA,NA,27,NA,5ee91448dd71c9291b822a9d,NA,U_graphs_1,NA,tutorial_and_prac_graphs/tut2.png,NA,Male,NA,NA,0,2,NA,"That average is calculated using the 
 rainfall from all 30 days in that month",1,NA,NA,60,NA,2,NA,2,NA,NA,Bachelor's degree (Healthcare science),2020-06-16_21h31.17.975,NA,NA,NA,NA,NA,NA,NA,NA,1,NA,NA,NA,NA,2020.1.2,NA,NA,NA,NA,Win32,NA,U_graphs_1,NA,NA,NA
﻿2020-06-16_21h31.17.975,NA,NA,27,NA,5ee91448dd71c9291b822a9d,NA,U_graphs_1,NA,tutorial_and_prac_graphs/tut3.png,NA,Male,NA,NA,0,3,NA,"That average is calculated using the 
 rainfall from all 30 days in that month",1,NA,NA,60,NA,3,NA,3,NA,NA,Bachelor's degree (Healthcare science),2020-06-16_21h31.17.975,NA,NA,NA,NA,NA,NA,NA,NA,1,NA,NA,NA,NA,2020.1.2,NA,NA,NA,NA,Win32,NA,U_graphs_1,NA,NA,NA
﻿2020-06-16_21h31.17.975,NA,NA,27,NA,5ee91448dd71c9291b822a9d,NA,U_graphs_1,NA,tutorial_and_prac_graphs/tut4.png,NA,Male,NA,NA,0,4,NA,"That average is calculated using the 
 rainfall from all 30 days in that month",1,NA,NA,60,NA,4,NA,4,NA,NA,Bachelor's degree (Healthcare science),2020-06-16_21h31.17.975,NA,NA,NA,NA,NA,NA,NA,NA,1,NA,NA,NA,NA,2020.1.2,NA,NA,NA,NA,Win32,NA,U_graphs_1,NA,NA,NA
﻿2020-06-16_21h31.17.975,NA,NA,27,NA,5ee91448dd71c9291b822a9d,NA,U_graphs_1,NA,tutorial_and_prac_graphs/tut5.png,NA,Male,NA,NA,0,5,NA,"That average is calculated using the 
 rainfall from all 30 days in that month",1,NA,NA,60,NA,5,NA,5,NA,NA,Bachelor's degree (Healthcare science),2020-06-16_21h31.17.975,NA,NA,NA,NA,NA,NA,NA,NA,1,NA,NA,NA,NA,2020.1.2,NA,NA,NA,NA,Win32,NA,U_graphs_1,NA,NA,NA
﻿2020-06-16_21h31.17.975,NA,NA,27,NA,5ee91448dd71c9291b822a9d,NA,U_graphs_1,NA,tutorial_and_prac_graphs/tut6.png,NA,Male,NA,NA,0,6,NA,"The red circle shows the average for 
 the whole month",1,NA,NA,60,NA,6,NA,6,NA,NA,Bachelor's degree (Healthcare science),2020-06-16_21h31.17.975,NA,NA,NA,NA,NA,NA,NA,NA,1,NA,NA,NA,NA,2020.1.2,NA,NA,NA,NA,Win32,NA,U_graphs_1,NA,NA,NA
﻿2020-06-16_21h31.17.975,space,0.4792566418008115,27,0,5ee91448dd71c9291b822a9d,5.33587999996962,U_graphs_1,NA,NA,NA,Male,2.013875000004191,NA,NA,NA,6.4354549999698065,NA,1,graphs/graph13.png,3.0002199999871664,60,NA,NA,0.28458316974218045,NA,0.7246433712864809,NA,Bachelor's degree (Healthcare science),2020-06-16_21h31.17.975,0,NA,graphs/graph13b.png,NA,NA,0,NA,NA,NA,NA,NA,NA,NA,2020.1.2,NA,NA,NA,1,Win32,NA,U_graphs_1,3,NA,NA
﻿2020-06-16_21h31.17.975,space,0.5217903415783276,27,0,5ee91448dd71c9291b822a9d,3.003575000038836,U_graphs_1,NA,NA,NA,Male,1.1479099999996834,NA,NA,NA,2.0277200000127777,NA,1,graphs/graph16.png,0.9923199999611825,60,NA,NA,0.5479649260567989,NA,0.35656327705797675,NA,Bachelor's degree (Healthcare science),2020-06-16_21h31.17.975,1,NA,graphs/graph16b.png,NA,NA,1,NA,NA,NA,NA,NA,NA,NA,2020.1.2,NA,NA,NA,1,Win32,NA,U_graphs_1,6,NA,NA
﻿2020-06-16_21h31.17.975,space,0.6444837063211623,27,0,5ee91448dd71c9291b822a9d,2.9952899999916553,U_graphs_1,NA,NA,NA,Male,1.1038800000096671,NA,NA,NA,1.8948199999867938,NA,1,graphs/graph15.png,0.8391650000121444,60,NA,NA,0.6870174060986782,NA,0.5790472451249837,NA,Bachelor's degree (Healthcare science),2020-06-16_21h31.17.975,2,NA,graphs/graph15b.png,NA,NA,2,NA,NA,NA,NA,NA,NA,NA,2020.1.2,NA,NA,NA,1,Win32,NA,U_graphs_1,5,NA,NA
﻿2020-06-16_21h31.17.975,space,0.7491820442350479,27,0,5ee91448dd71c9291b822a9d,3.294999999983702,U_graphs_1,NA,NA,NA,Male,1.030979999981355,NA,NA,NA,2.076734999951441,NA,1,graphs/graph12.png,0.47153000003891066,60,NA,NA,0.3729223923570214,NA,0.6755660253893471,NA,Bachelor's degree (Healthcare science),2020-06-16_21h31.17.975,3,NA,graphs/graph12b.png,NA,NA,3,NA,NA,NA,NA,NA,NA,NA,2020.1.2,NA,NA,NA,1,Win32,NA,U_graphs_1,2,NA,NA
﻿2020-06-16_21h31.17.975,space,0.39418924224577945,27,0,5ee91448dd71c9291b822a9d,2.9771249999757856,U_graphs_1,NA,NA,NA,Male,1.1042949999682605,NA,NA,NA,1.9413300000014715,NA,1,graphs/graph14.png,0.8860799999674782,60,NA,NA,0.5855908912446015,NA,0.5774113335950792,NA,Bachelor's degree (Healthcare science),2020-06-16_21h31.17.975,4,NA,graphs/graph14b.png,NA,NA,4,NA,NA,NA,NA,NA,NA,NA,2020.1.2,NA,NA,NA,1,Win32,NA,U_graphs_1,4,NA,NA
﻿2020-06-16_21h31.17.975,space,0.5119748723989008,27,0,5ee91448dd71c9291b822a9d,3.7118650000193156,U_graphs_1,NA,NA,NA,Male,1.1530149999889545,NA,NA,NA,2.4115250000031665,NA,1,graphs/graph18.png,0.4208850000286475,60,NA,NA,0.3336605156393143,NA,0.5545085721764168,NA,Bachelor's degree (Healthcare science),2020-06-16_21h31.17.975,5,NA,graphs/graph18b.png,NA,NA,5,NA,NA,NA,NA,NA,NA,NA,2020.1.2,NA,NA,NA,1,Win32,NA,U_graphs_1,8,NA,NA
﻿2020-06-16_21h31.17.975,space,0.6641146446800158,27,0,5ee91448dd71c9291b822a9d,3.9311000000452623,U_graphs_1,NA,NA,NA,Male,1.799189999990631,NA,NA,NA,2.7794250000151806,NA,1,graphs/graph10.png,2.357669999997597,60,NA,NA,0.7017406098678185,NA,0.4040047114252062,NA,Bachelor's degree (Healthcare science),2020-06-16_21h31.17.975,6,NA,graphs/graph10b.png,NA,NA,6,NA,NA,NA,NA,NA,NA,NA,2020.1.2,NA,NA,NA,1,Win32,NA,U_graphs_1,0,NA,NA
﻿2020-06-16_21h31.17.975,space,0.7197356366967675,27,0,5ee91448dd71c9291b822a9d,3.1408700000029057,U_graphs_1,NA,NA,NA,Male,0.8864700000267476,NA,NA,NA,2.0483600000152364,NA,1,graphs/graph17.png,1.072855000034906,60,NA,NA,0.523426253108232,NA,0.4514461457924356,NA,Bachelor's degree (Healthcare science),2020-06-16_21h31.17.975,7,NA,graphs/graph17b.png,NA,NA,7,NA,NA,NA,NA,NA,NA,NA,2020.1.2,NA,NA,NA,1,Win32,NA,U_graphs_1,7,NA,NA
﻿2020-06-16_21h31.17.975,space,0.654299175500589,27,0,5ee91448dd71c9291b822a9d,4.924875000026077,U_graphs_1,NA,NA,NA,Male,1.0048850000021048,NA,NA,NA,2.401740000001155,NA,1,graphs/graph11.png,0.6718349999864586,60,NA,NA,0.6477555293809711,NA,0.43345111896348654,NA,Bachelor's degree (Healthcare science),2020-06-16_21h31.17.975,8,NA,graphs/graph11b.png,NA,NA,8,NA,NA,NA,NA,NA,NA,NA,2020.1.2,NA,NA,NA,1,Win32,NA,U_graphs_1,1,NA,NA
﻿2020-06-16_21h31.17.975,NA,NA,27,NA,5ee91448dd71c9291b822a9d,NA,U_graphs_1,NA,NA,NA,Male,NA,1,NA,NA,NA,NA,1,NA,NA,60,NA,NA,NA,NA,NA,0,Bachelor's degree (Healthcare science),2020-06-16_21h31.17.975,NA,NA,NA,lists/teachers_block.csv,NA,NA,NA,0,NA,1,NA,NA,NA,2020.1.2,The following graphs show how pupils' exam grades changed in one year. The data are taken from 24 pupils from each teacher's class.,NA,0,NA,Win32,NA,U_graphs_1,NA,NA,NA
﻿2020-06-16_21h31.17.975,space,0.7720848056537104,27,0,5ee91448dd71c9291b822a9d,3.3255800000042655,U_graphs_1,NA,NA,NA,Male,1.1193299999576993,NA,NA,NA,2.079599999997299,NA,1,graphs/graph66.png,0.6762649999582209,60,NA,NA,0.4874361994503338,NA,0.7835361863630416,NA,Bachelor's degree (Healthcare science),2020-06-16_21h31.17.975,0,NA,graphs/graph66b.png,NA,NA,0,NA,NA,NA,NA,NA,NA,NA,2020.1.2,NA,NA,NA,1,Win32,NA,U_graphs_1,2,NA,NA
﻿2020-06-16_21h31.17.975,space,0.682109671508965,27,0,5ee91448dd71c9291b822a9d,3.170204999973066,U_graphs_1,NA,NA,NA,Male,0.918805000022985,NA,NA,NA,2.1641299999901094,NA,1,graphs/graph69.png,0.4180250000208616,60,NA,NA,0.8211621515508443,NA,0.6493914409108756,NA,Bachelor's degree (Healthcare science),2020-06-16_21h31.17.975,1,NA,graphs/graph69b.png,NA,NA,1,NA,NA,NA,NA,NA,NA,NA,2020.1.2,NA,NA,NA,1,Win32,NA,U_graphs_1,5,NA,NA
﻿2020-06-16_21h31.17.975,space,0.3712864808271169,27,0,5ee91448dd71c9291b822a9d,3.102279999991879,U_graphs_1,NA,NA,NA,Male,0.8751200000406243,NA,NA,NA,1.8272950000246055,NA,1,graphs/graph67.png,0.16341500001726672,60,NA,NA,0.36474283470749913,NA,0.5594163067661302,NA,Bachelor's degree (Healthcare science),2020-06-16_21h31.17.975,2,NA,graphs/graph67b.png,NA,NA,2,NA,NA,NA,NA,NA,NA,NA,2020.1.2,NA,NA,NA,1,Win32,NA,U_graphs_1,3,NA,NA
﻿2020-06-16_21h31.17.975,space,0.5430571914670855,27,0,5ee91448dd71c9291b822a9d,3.559315000020433,U_graphs_1,NA,NA,NA,Male,1.1255349999992177,NA,NA,NA,2.4193450000020675,NA,1,graphs/graph70.png,0.20475500001339242,60,NA,NA,0.5201544300484231,NA,0.36474283470749913,NA,Bachelor's degree (Healthcare science),2020-06-16_21h31.17.975,3,NA,graphs/graph70b.png,NA,NA,3,NA,NA,NA,NA,NA,NA,NA,2020.1.2,NA,NA,NA,1,Win32,NA,U_graphs_1,6,NA,NA
﻿2020-06-16_21h31.17.975,space,0.38600968459625706,27,0,5ee91448dd71c9291b822a9d,3.027300000016112,U_graphs_1,NA,NA,NA,Male,0.7815149999805726,NA,NA,NA,1.8022199999541044,NA,1,graphs/graph72.png,0.5008349999552593,60,NA,NA,0.24532129302447325,NA,0.4449024996728178,NA,Bachelor's degree (Healthcare science),2020-06-16_21h31.17.975,4,NA,graphs/graph72b.png,NA,NA,4,NA,NA,NA,NA,NA,NA,NA,2020.1.2,NA,NA,NA,1,Win32,NA,U_graphs_1,8,NA,NA
﻿2020-06-16_21h31.17.975,space,0.38600968459625706,27,0,5ee91448dd71c9291b822a9d,3.9026799999992363,U_graphs_1,NA,NA,NA,Male,1.0190350000048056,NA,NA,NA,2.525610000011511,NA,1,graphs/graph64.png,0.5613050000392832,60,NA,NA,0.4465384112027222,NA,0.3074859311608429,NA,Bachelor's degree (Healthcare science),2020-06-16_21h31.17.975,5,NA,graphs/graph64b.png,NA,NA,5,NA,NA,NA,NA,NA,NA,NA,2020.1.2,NA,NA,NA,1,Win32,NA,U_graphs_1,0,NA,NA
﻿2020-06-16_21h31.17.975,space,0.3025781965711295,27,0,5ee91448dd71c9291b822a9d,3.896245000010822,U_graphs_1,NA,NA,NA,Male,1.0692649999982677,NA,NA,NA,2.6701450000400655,NA,1,graphs/graph68.png,0.8229350000037812,60,NA,NA,0.4547179688522446,NA,0.49397984556995167,NA,Bachelor's degree (Healthcare science),2020-06-16_21h31.17.975,6,NA,graphs/graph68b.png,NA,NA,6,NA,NA,NA,NA,NA,NA,NA,2020.1.2,NA,NA,NA,1,Win32,NA,U_graphs_1,4,NA,NA
﻿2020-06-16_21h31.17.975,space,0.4481743227326267,27,0,5ee91448dd71c9291b822a9d,3.444484999985434,U_graphs_1,NA,NA,NA,Male,1.1243399999802932,NA,NA,NA,2.1857749999617226,NA,1,graphs/graph65.png,0.5067350000026636,60,NA,NA,0.19133621253762612,NA,0.24204946996466437,NA,Bachelor's degree (Healthcare science),2020-06-16_21h31.17.975,7,NA,graphs/graph65b.png,NA,NA,7,NA,NA,NA,NA,NA,NA,NA,2020.1.2,NA,NA,NA,1,Win32,NA,U_graphs_1,1,NA,NA
﻿2020-06-16_21h31.17.975,space,0.32875278104960093,27,0,5ee91448dd71c9291b822a9d,3.826954999996815,U_graphs_1,NA,NA,NA,Male,1.0116249999846332,NA,NA,NA,2.2410149999777786,NA,1,graphs/graph71.png,0.4438300000037998,60,NA,NA,0.21914670854600193,NA,0.2698599659730403,NA,Bachelor's degree (Healthcare science),2020-06-16_21h31.17.975,8,NA,graphs/graph71b.png,NA,NA,8,NA,NA,NA,NA,NA,NA,NA,2020.1.2,NA,NA,NA,1,Win32,NA,U_graphs_1,7,NA,NA
﻿2020-06-16_21h31.17.975,NA,NA,27,NA,5ee91448dd71c9291b822a9d,NA,U_graphs_1,NA,NA,NA,Male,NA,1,NA,NA,NA,NA,1,NA,NA,60,NA,NA,NA,NA,NA,0,Bachelor's degree (Healthcare science),2020-06-16_21h31.17.975,NA,NA,NA,lists/expenditure_block.csv,NA,NA,NA,1,NA,7,NA,NA,NA,2020.1.2,The following graphs show how much money different companies invest in sustainability. The data are taken from 24 companies from each country.,NA,1,NA,Win32,NA,U_graphs_1,NA,NA,NA
﻿2020-06-16_21h31.17.975,space,0.3058500196309384,27,0,5ee91448dd71c9291b822a9d,3.1525600000168197,U_graphs_1,NA,NA,NA,Male,1.1360449999920093,NA,NA,NA,2.1361500000348315,NA,1,graphs/graph61.png,0.442975000012666,60,NA,NA,0.27803952362256257,NA,0.7066483444575318,NA,Bachelor's degree (Healthcare science),2020-06-16_21h31.17.975,0,NA,graphs/graph61b.png,NA,NA,0,NA,NA,NA,NA,NA,NA,NA,2020.1.2,NA,NA,NA,1,Win32,NA,U_graphs_1,6,NA,NA
﻿2020-06-16_21h31.17.975,space,0.6510273524407801,27,0,5ee91448dd71c9291b822a9d,2.869315000018105,U_graphs_1,NA,NA,NA,Male,0.840459999977611,NA,NA,NA,1.7402799999690615,NA,1,graphs/graph59.png,1.0132500000181608,60,NA,NA,0.43181520743358204,NA,0.4105483575448241,NA,Bachelor's degree (Healthcare science),2020-06-16_21h31.17.975,1,NA,graphs/graph59b.png,NA,NA,1,NA,NA,NA,NA,NA,NA,NA,2020.1.2,NA,NA,NA,1,Win32,NA,U_graphs_1,4,NA,NA
﻿2020-06-16_21h31.17.975,space,0.5921345373642195,27,0,5ee91448dd71c9291b822a9d,4.102914999995846,U_graphs_1,NA,NA,NA,Male,1.2863300000317395,NA,NA,NA,3.1283800000092015,NA,1,graphs/graph60.png,0.3760500000207685,60,NA,NA,0.413820180604633,NA,0.6232168564324042,NA,Bachelor's degree (Healthcare science),2020-06-16_21h31.17.975,2,NA,graphs/graph60b.png,NA,NA,2,NA,NA,NA,NA,NA,NA,NA,2020.1.2,NA,NA,NA,1,Win32,NA,U_graphs_1,5,NA,NA
﻿2020-06-16_21h31.17.975,space,0.22241853160581082,27,0,5ee91448dd71c9291b822a9d,3.5418550000176765,U_graphs_1,NA,NA,NA,Male,1.2699500000453554,NA,NA,NA,2.473569999972824,NA,1,graphs/graph58.png,0.14659499999834225,60,NA,NA,0.2682240544431358,NA,0.1995157701871484,NA,Bachelor's degree (Healthcare science),2020-06-16_21h31.17.975,3,NA,graphs/graph58b.png,NA,NA,3,NA,NA,NA,NA,NA,NA,NA,2020.1.2,NA,NA,NA,1,Win32,NA,U_graphs_1,3,NA,NA
﻿2020-06-16_21h31.17.975,space,0.5954063604240283,27,0,5ee91448dd71c9291b822a9d,4.475800000014715,U_graphs_1,NA,NA,NA,Male,1.3032400000374764,NA,NA,NA,2.098004999978002,NA,1,graphs/graph63.png,1.568485000054352,60,NA,NA,0.7900798324826594,NA,0.5512367491166079,NA,Bachelor's degree (Healthcare science),2020-06-16_21h31.17.975,4,NA,graphs/graph63b.png,NA,NA,4,NA,NA,NA,NA,NA,NA,NA,2020.1.2,NA,NA,NA,1,Win32,NA,U_graphs_1,8,NA,NA
﻿2020-06-16_21h31.17.975,space,0.39582515377568384,27,0,5ee91448dd71c9291b822a9d,4.9552549999789335,U_graphs_1,NA,NA,NA,Male,1.1575450000236742,NA,NA,NA,2.4073649999918416,NA,1,graphs/graph56.png,1.7738200000021607,60,NA,NA,0.6379400602015444,NA,0.5806831566548882,NA,Bachelor's degree (Healthcare science),2020-06-16_21h31.17.975,5,NA,graphs/graph56b.png,NA,NA,5,NA,NA,NA,NA,NA,NA,NA,2020.1.2,NA,NA,NA,1,Win32,NA,U_graphs_1,1,NA,NA
﻿2020-06-16_21h31.17.975,space,0.7344588404659077,27,0,5ee91448dd71c9291b822a9d,4.0939999999827705,U_graphs_1,NA,NA,NA,Male,1.0297600000048988,NA,NA,NA,3.145665000018198,NA,1,graphs/graph55.png,0.8737100000143982,60,NA,NA,0.7720848056537104,NA,0.7524538672948569,NA,Bachelor's degree (Healthcare science),2020-06-16_21h31.17.975,6,NA,graphs/graph55b.png,NA,NA,6,NA,NA,NA,NA,NA,NA,NA,2020.1.2,NA,NA,NA,1,Win32,NA,U_graphs_1,0,NA,NA
﻿2020-06-16_21h31.17.975,space,0.24368538149456886,27,0,5ee91448dd71c9291b822a9d,4.815875000029337,U_graphs_1,NA,NA,NA,Male,1.2097300000023097,NA,NA,NA,2.1119899999466725,NA,1,graphs/graph62.png,1.4710249999770895,60,NA,NA,0.28621908127208484,NA,0.2240544431357152,NA,Bachelor's degree (Healthcare science),2020-06-16_21h31.17.975,7,NA,graphs/graph62b.png,NA,NA,7,NA,NA,NA,NA,NA,NA,NA,2020.1.2,NA,NA,NA,1,Win32,NA,U_graphs_1,7,NA,NA
﻿2020-06-16_21h31.17.975,space,0.25186493914409114,27,0,5ee91448dd71c9291b822a9d,5.763764999981504,U_graphs_1,NA,NA,NA,Male,1.236635000037495,NA,NA,NA,3.920415000000503,NA,1,graphs/graph57.png,1.1452549999812618,60,NA,NA,0.36474283470749913,NA,0.24041355843475998,NA,Bachelor's degree (Healthcare science),2020-06-16_21h31.17.975,8,NA,graphs/graph57b.png,NA,NA,8,NA,NA,NA,NA,NA,NA,NA,2020.1.2,NA,NA,NA,1,Win32,NA,U_graphs_1,2,NA,NA
﻿2020-06-16_21h31.17.975,NA,NA,27,NA,5ee91448dd71c9291b822a9d,NA,U_graphs_1,NA,NA,NA,Male,NA,1,NA,NA,NA,NA,1,NA,NA,60,NA,NA,NA,NA,NA,0,Bachelor's degree (Healthcare science),2020-06-16_21h31.17.975,NA,NA,NA,lists/taxi_block.csv,NA,NA,NA,2,NA,6,NA,NA,NA,2020.1.2,The following graphs show the average trip length for 24 taxi drivers in various cities.,NA,2,NA,Win32,NA,U_graphs_1,NA,NA,NA
﻿2020-06-16_21h31.17.975,space,0.6690223792697292,27,0,5ee91448dd71c9291b822a9d,4.426549999974668,U_graphs_1,NA,NA,NA,Male,1.0886649999883957,NA,NA,NA,2.1694900000002235,NA,1,graphs/graph39.png,1.675890000013169,60,NA,NA,0.7508179557649524,NA,0.6428477947912578,NA,Bachelor's degree (Healthcare science),2020-06-16_21h31.17.975,0,NA,graphs/graph39b.png,NA,NA,0,NA,NA,NA,NA,NA,NA,NA,2020.1.2,NA,NA,NA,1,Win32,NA,U_graphs_1,2,NA,NA
﻿2020-06-16_21h31.17.975,space,0.6608428216202069,27,0,5ee91448dd71c9291b822a9d,3.559099999954924,U_graphs_1,NA,NA,NA,Male,0.8533900000038557,NA,NA,NA,5.147934999957215,NA,1,graphs/graph38.png,2.962279999977909,60,NA,NA,0.7769925402434237,NA,0.7819002748331372,NA,Bachelor's degree (Healthcare science),2020-06-16_21h31.17.975,1,NA,graphs/graph38b.png,NA,NA,1,NA,NA,NA,NA,NA,NA,NA,2020.1.2,NA,NA,NA,1,Win32,NA,U_graphs_1,1,NA,NA
﻿2020-06-16_21h31.17.975,space,0.3778301269467348,27,0,5ee91448dd71c9291b822a9d,3.6861749999807216,U_graphs_1,NA,NA,NA,Male,0.7389100000145845,NA,NA,NA,2.486220000020694,NA,1,graphs/graph45.png,0.4180250000208616,60,NA,NA,0.5545085721764168,NA,0.35819918858788125,NA,Bachelor's degree (Healthcare science),2020-06-16_21h31.17.975,2,NA,graphs/graph45b.png,NA,NA,2,NA,NA,NA,NA,NA,NA,NA,2020.1.2,NA,NA,NA,1,Win32,NA,U_graphs_1,8,NA,NA
﻿2020-06-16_21h31.17.975,space,0.6363041486716399,27,0,5ee91448dd71c9291b822a9d,3.5452449999866076,U_graphs_1,NA,NA,NA,Male,1.5417849999503233,NA,NA,NA,2.3995149999973364,NA,1,graphs/graph37.png,0.39100000000325963,60,NA,NA,0.6395759717314489,NA,0.7344588404659077,NA,Bachelor's degree (Healthcare science),2020-06-16_21h31.17.975,3,NA,graphs/graph37b.png,NA,NA,3,NA,NA,NA,NA,NA,NA,NA,2020.1.2,NA,NA,NA,1,Win32,NA,U_graphs_1,0,NA,NA
﻿2020-06-16_21h31.17.975,space,0.682109671508965,27,0,5ee91448dd71c9291b822a9d,4.012820000003558,U_graphs_1,NA,NA,NA,Male,0.9748600000166334,NA,NA,NA,2.6852149999467656,NA,1,graphs/graph41.png,0.726569999998901,60,NA,NA,0.5316058107577544,NA,0.5365135453474676,NA,Bachelor's degree (Healthcare science),2020-06-16_21h31.17.975,4,NA,graphs/graph41b.png,NA,NA,4,NA,NA,NA,NA,NA,NA,NA,2020.1.2,NA,NA,NA,1,Win32,NA,U_graphs_1,4,NA,NA
﻿2020-06-16_21h31.17.975,space,0.21587488548619294,27,0,5ee91448dd71c9291b822a9d,3.2532399999909103,U_graphs_1,NA,NA,NA,Male,1.2265849999967031,NA,NA,NA,2.262575000000652,NA,1,graphs/graph44.png,0.42943499999819323,60,NA,NA,0.4023687998953017,NA,0.4121842690747285,NA,Bachelor's degree (Healthcare science),2020-06-16_21h31.17.975,5,NA,graphs/graph44b.png,NA,NA,5,NA,NA,NA,NA,NA,NA,NA,2020.1.2,NA,NA,NA,1,Win32,NA,U_graphs_1,7,NA,NA
﻿2020-06-16_21h31.17.975,space,0.480892553330716,27,0,5ee91448dd71c9291b822a9d,3.6885550000006333,U_graphs_1,NA,NA,NA,Male,1.2819599999929778,NA,NA,NA,2.1827899999916553,NA,1,graphs/graph43.png,0.4008200000389479,60,NA,NA,0.4792566418008115,NA,0.7197356366967675,NA,Bachelor's degree (Healthcare science),2020-06-16_21h31.17.975,6,NA,graphs/graph43b.png,NA,NA,6,NA,NA,NA,NA,NA,NA,NA,2020.1.2,NA,NA,NA,1,Win32,NA,U_graphs_1,6,NA,NA
﻿2020-06-16_21h31.17.975,space,0.6248527679623087,27,0,5ee91448dd71c9291b822a9d,2.9491449999623,U_graphs_1,NA,NA,NA,Male,0.9773750000167638,NA,NA,NA,4.5025299999979325,NA,1,graphs/graph40.png,1.977580000006128,60,NA,NA,0.6232168564324042,NA,0.3336605156393143,NA,Bachelor's degree (Healthcare science),2020-06-16_21h31.17.975,7,NA,graphs/graph40b.png,NA,NA,7,NA,NA,NA,NA,NA,NA,NA,2020.1.2,NA,NA,NA,1,Win32,NA,U_graphs_1,3,NA,NA
﻿2020-06-16_21h31.17.975,space,0.8260698861405575,27,0,5ee91448dd71c9291b822a9d,4.635444999963511,U_graphs_1,NA,NA,NA,Male,0.875289999996312,NA,NA,NA,2.289025000005495,NA,1,graphs/graph42.png,1.4509299999917857,60,NA,NA,0.7262792828163853,NA,0.7982593901321817,NA,Bachelor's degree (Healthcare science),2020-06-16_21h31.17.975,8,NA,graphs/graph42b.png,NA,NA,8,NA,NA,NA,NA,NA,NA,NA,2020.1.2,NA,NA,NA,1,Win32,NA,U_graphs_1,5,NA,NA
﻿2020-06-16_21h31.17.975,NA,NA,27,NA,5ee91448dd71c9291b822a9d,NA,U_graphs_1,NA,NA,NA,Male,NA,1,NA,NA,NA,NA,1,NA,NA,60,NA,NA,NA,NA,NA,0,Bachelor's degree (Healthcare science),2020-06-16_21h31.17.975,NA,NA,NA,lists/teachers2_block.csv,NA,NA,NA,3,NA,4,NA,NA,NA,2020.1.2,The following graphs show teachers' performance. 24 pupils in each teacher's class were asked to rate their lesson out of 100.,NA,3,NA,Win32,NA,U_graphs_1,NA,NA,NA
﻿2020-06-16_21h31.17.975,space,0.7622693364742836,27,0,5ee91448dd71c9291b822a9d,4.5068999999784864,U_graphs_1,NA,NA,NA,Male,2.662850000022445,NA,NA,NA,3.5270849999506027,NA,1,graphs/graph46.png,0.8009249999886379,60,NA,NA,0.788443920952755,NA,0.5430571914670855,NA,Bachelor's degree (Healthcare science),2020-06-16_21h31.17.975,0,NA,graphs/graph46b.png,NA,NA,0,NA,NA,NA,NA,NA,NA,NA,2020.1.2,NA,NA,NA,1,Win32,NA,U_graphs_1,0,NA,NA
﻿2020-06-16_21h31.17.975,space,0.46944117262138474,27,0,5ee91448dd71c9291b822a9d,3.6634950000443496,U_graphs_1,NA,NA,NA,Male,0.8813300000037998,NA,NA,NA,2.1863499999744818,NA,1,graphs/graph49.png,0.9676500000059605,60,NA,NA,0.4105483575448241,NA,0.5119748723989008,NA,Bachelor's degree (Healthcare science),2020-06-16_21h31.17.975,1,NA,graphs/graph49b.png,NA,NA,1,NA,NA,NA,NA,NA,NA,NA,2020.1.2,NA,NA,NA,1,Win32,NA,U_graphs_1,3,NA,NA
﻿2020-06-16_21h31.17.975,space,0.6019500065436463,27,0,5ee91448dd71c9291b822a9d,2.559010000026319,U_graphs_1,NA,NA,NA,Male,0.7891299999901094,NA,NA,NA,1.6647050000028685,NA,1,graphs/graph48.png,0.46298499999102205,60,NA,NA,0.28949090433189384,NA,0.6199450333725953,NA,Bachelor's degree (Healthcare science),2020-06-16_21h31.17.975,2,NA,graphs/graph48b.png,NA,NA,2,NA,NA,NA,NA,NA,NA,NA,2020.1.2,NA,NA,NA,1,Win32,NA,U_graphs_1,2,NA,NA
﻿2020-06-16_21h31.17.975,space,0.7589975134144746,27,0,5ee91448dd71c9291b822a9d,3.1512499999953434,U_graphs_1,NA,NA,NA,Male,0.9346149999764748,NA,NA,NA,2.18722500000149,NA,1,graphs/graph52.png,0.26229000004241243,60,NA,NA,0.7606334249443791,NA,0.21751079701609743,NA,Bachelor's degree (Healthcare science),2020-06-16_21h31.17.975,3,NA,graphs/graph52b.png,NA,NA,3,NA,NA,NA,NA,NA,NA,NA,2020.1.2,NA,NA,NA,1,Win32,NA,U_graphs_1,6,NA,NA
﻿2020-06-16_21h31.17.975,space,0.22078262007590643,27,0,5ee91448dd71c9291b822a9d,5.505644999968354,U_graphs_1,NA,NA,NA,Male,0.8934649999719113,NA,NA,NA,3.502570000011474,NA,1,graphs/graph50.png,1.34257500001695,60,NA,NA,0.6183091218426908,NA,0.611765475723073,NA,Bachelor's degree (Healthcare science),2020-06-16_21h31.17.975,4,NA,graphs/graph50b.png,NA,NA,4,NA,NA,NA,NA,NA,NA,NA,2020.1.2,NA,NA,NA,1,Win32,NA,U_graphs_1,4,NA,NA
﻿2020-06-16_21h31.17.975,space,0.6313964140819266,27,0,5ee91448dd71c9291b822a9d,2.449125000042841,U_graphs_1,NA,NA,NA,Male,0.755109999969136,NA,NA,NA,1.499164999986533,NA,1,graphs/graph53.png,0.1676599999773316,60,NA,NA,0.21423897395628844,NA,0.2289621777254287,NA,Bachelor's degree (Healthcare science),2020-06-16_21h31.17.975,5,NA,graphs/graph53b.png,NA,NA,5,NA,NA,NA,NA,NA,NA,NA,2020.1.2,NA,NA,NA,1,Win32,NA,U_graphs_1,7,NA,NA
﻿2020-06-16_21h31.17.975,space,0.6657505562099203,27,0,5ee91448dd71c9291b822a9d,4.784950000001118,U_graphs_1,NA,NA,NA,Male,1.1314899999997579,NA,NA,NA,2.375065000029281,NA,1,graphs/graph47.png,1.6105800000368617,60,NA,NA,0.32384504645988754,NA,0.36147101164769013,NA,Bachelor's degree (Healthcare science),2020-06-16_21h31.17.975,6,NA,graphs/graph47b.png,NA,NA,6,NA,NA,NA,NA,NA,NA,NA,2020.1.2,NA,NA,NA,1,Win32,NA,U_graphs_1,1,NA,NA
﻿2020-06-16_21h31.17.975,space,0.4514461457924356,27,0,5ee91448dd71c9291b822a9d,2.77247999998508,U_graphs_1,NA,NA,NA,Male,0.6285399999469519,NA,NA,NA,1.6529300000402145,NA,1,graphs/graph54.png,0.8010050000157207,60,NA,NA,0.35983510011778574,NA,0.4023687998953017,NA,Bachelor's degree (Healthcare science),2020-06-16_21h31.17.975,7,NA,graphs/graph54b.png,NA,NA,7,NA,NA,NA,NA,NA,NA,NA,2020.1.2,NA,NA,NA,1,Win32,NA,U_graphs_1,8,NA,NA
﻿2020-06-16_21h31.17.975,space,0.3843737730663527,27,0,5ee91448dd71c9291b822a9d,2.7820550000178628,U_graphs_1,NA,NA,NA,Male,0.8541500000283122,NA,NA,NA,1.6957700000493787,NA,1,graphs/graph51.png,0.2895600000047125,60,NA,NA,0.24695720455437775,NA,0.4040047114252062,NA,Bachelor's degree (Healthcare science),2020-06-16_21h31.17.975,8,NA,graphs/graph51b.png,NA,NA,8,NA,NA,NA,NA,NA,NA,NA,2020.1.2,NA,NA,NA,1,Win32,NA,U_graphs_1,5,NA,NA
﻿2020-06-16_21h31.17.975,NA,NA,27,NA,5ee91448dd71c9291b822a9d,NA,U_graphs_1,NA,NA,NA,Male,NA,1,NA,NA,NA,NA,1,NA,NA,60,NA,NA,NA,NA,NA,0,Bachelor's degree (Healthcare science),2020-06-16_21h31.17.975,NA,NA,NA,lists/trains_block.csv,NA,NA,NA,4,NA,5,NA,NA,NA,2020.1.2,"The following graphs show the proportion of delayed trains arriving into English train stations each month, over a 24 month period.",NA,4,NA,Win32,NA,U_graphs_1,NA,NA,NA
﻿2020-06-16_21h31.17.975,space,0.3385682502290277,27,0,5ee91448dd71c9291b822a9d,3.6289850000175647,U_graphs_1,NA,NA,NA,Male,1.5251249999855645,NA,NA,NA,2.6291399999754503,NA,1,graphs/graph20.png,0.6176399999530986,60,NA,NA,0.4383588535531999,NA,0.43181520743358204,NA,Bachelor's degree (Healthcare science),2020-06-16_21h31.17.975,0,NA,graphs/graph20b.png,NA,NA,0,NA,NA,NA,NA,NA,NA,NA,2020.1.2,NA,NA,NA,1,Win32,NA,U_graphs_1,1,NA,NA
﻿2020-06-16_21h31.17.975,space,0.3352964271692187,27,0,5ee91448dd71c9291b822a9d,3.9378750000032596,U_graphs_1,NA,NA,NA,Male,0.9742100000148639,NA,NA,NA,1.8718799999915063,NA,1,graphs/graph21.png,1.0545050000073388,60,NA,NA,0.49234393404004717,NA,0.3107577542206519,NA,Bachelor's degree (Healthcare science),2020-06-16_21h31.17.975,1,NA,graphs/graph21b.png,NA,NA,1,NA,NA,NA,NA,NA,NA,NA,2020.1.2,NA,NA,NA,1,Win32,NA,U_graphs_1,2,NA,NA
﻿2020-06-16_21h31.17.975,space,0.3761942154168303,27,0,5ee91448dd71c9291b822a9d,4.214189999969676,U_graphs_1,NA,NA,NA,Male,2.3360249999677762,NA,NA,NA,3.0583750000223517,NA,1,graphs/graph27.png,0.585640000004787,60,NA,NA,0.5070671378091873,NA,0.2911268158617982,NA,Bachelor's degree (Healthcare science),2020-06-16_21h31.17.975,2,NA,graphs/graph27b.png,NA,NA,2,NA,NA,NA,NA,NA,NA,NA,2020.1.2,NA,NA,NA,1,Win32,NA,U_graphs_1,8,NA,NA
﻿2020-06-16_21h31.17.975,space,0.4416306766130088,27,0,5ee91448dd71c9291b822a9d,3.7375349999638274,U_graphs_1,NA,NA,NA,Male,1.1579749999800697,NA,NA,NA,1.8375999999698251,NA,1,graphs/graph25.png,1.0082000000402331,60,NA,NA,0.4432665881429133,NA,0.6951969637482006,NA,Bachelor's degree (Healthcare science),2020-06-16_21h31.17.975,3,NA,graphs/graph25b.png,NA,NA,3,NA,NA,NA,NA,NA,NA,NA,2020.1.2,NA,NA,NA,1,Win32,NA,U_graphs_1,6,NA,NA
﻿2020-06-16_21h31.17.975,space,0.6510273524407801,27,0,5ee91448dd71c9291b822a9d,4.503205000015441,U_graphs_1,NA,NA,NA,Male,3.6913999999524094,NA,NA,NA,2.6209149999776855,NA,1,graphs/graph24.png,0.6021549999713898,60,NA,NA,0.39909697683549283,NA,0.7377306635257166,NA,Bachelor's degree (Healthcare science),2020-06-16_21h31.17.975,4,NA,graphs/graph24b.png,NA,NA,4,NA,NA,NA,NA,NA,NA,NA,2020.1.2,NA,NA,NA,1,Win32,NA,U_graphs_1,5,NA,NA
﻿2020-06-16_21h31.17.975,space,0.4465384112027222,27,0,5ee91448dd71c9291b822a9d,3.0158400000073016,U_graphs_1,NA,NA,NA,Male,1.4359800000092946,NA,NA,NA,2.2557399999932386,NA,1,graphs/graph26.png,0.4509499999694526,60,NA,NA,0.682109671508965,NA,0.6526632639706845,NA,Bachelor's degree (Healthcare science),2020-06-16_21h31.17.975,5,NA,graphs/graph26b.png,NA,NA,5,NA,NA,NA,NA,NA,NA,NA,2020.1.2,NA,NA,NA,1,Win32,NA,U_graphs_1,7,NA,NA
﻿2020-06-16_21h31.17.975,space,0.5185185185185186,27,0,5ee91448dd71c9291b822a9d,4.593835000006948,U_graphs_1,NA,NA,NA,Male,1.6917999999714084,NA,NA,NA,2.6282350000110455,NA,1,graphs/graph22.png,0.406394999998156,60,NA,NA,0.5266980761680409,NA,0.3320246041094098,NA,Bachelor's degree (Healthcare science),2020-06-16_21h31.17.975,6,NA,graphs/graph22b.png,NA,NA,6,NA,NA,NA,NA,NA,NA,NA,2020.1.2,NA,NA,NA,1,Win32,NA,U_graphs_1,3,NA,NA
﻿2020-06-16_21h31.17.975,space,0.46126161497186235,27,0,5ee91448dd71c9291b822a9d,3.4990749999997206,U_graphs_1,NA,NA,NA,Male,1.7996550000389107,NA,NA,NA,2.5406700000166893,NA,1,graphs/graph23.png,1.1048150000278838,60,NA,NA,0.28785499280198934,NA,0.32057322340007866,NA,Bachelor's degree (Healthcare science),2020-06-16_21h31.17.975,7,NA,graphs/graph23b.png,NA,NA,7,NA,NA,NA,NA,NA,NA,NA,2020.1.2,NA,NA,NA,1,Win32,NA,U_graphs_1,4,NA,NA
﻿2020-06-16_21h31.17.975,space,0.4089124460149196,27,0,5ee91448dd71c9291b822a9d,3.657355000032112,U_graphs_1,NA,NA,NA,Male,0.6893649999983609,NA,NA,NA,1.995725000044331,NA,1,graphs/graph19.png,1.0442349999793805,60,NA,NA,0.3418400732888366,NA,0.7524538672948569,NA,Bachelor's degree (Healthcare science),2020-06-16_21h31.17.975,8,NA,graphs/graph19b.png,NA,NA,8,NA,NA,NA,NA,NA,NA,NA,2020.1.2,NA,NA,NA,1,Win32,NA,U_graphs_1,0,NA,NA
﻿2020-06-16_21h31.17.975,NA,NA,27,NA,5ee91448dd71c9291b822a9d,NA,U_graphs_1,NA,NA,NA,Male,NA,1,NA,NA,NA,NA,1,NA,NA,60,NA,NA,NA,NA,NA,0,Bachelor's degree (Healthcare science),2020-06-16_21h31.17.975,NA,NA,NA,lists/schools_block.csv,NA,NA,NA,5,NA,2,NA,NA,NA,2020.1.2,The following graphs show how much money schools spend per pupil (on average). The data are taken from 24 schools in and around each English town or city.,NA,5,NA,Win32,NA,U_graphs_1,NA,NA,NA
﻿2020-06-16_21h31.17.975,space,0.4743489072110981,27,0,5ee91448dd71c9291b822a9d,2.6641100000124425,U_graphs_1,NA,NA,NA,Male,0.8066400000243448,NA,NA,NA,1.7586399999563582,NA,1,graphs/graph34.png,0.34240999998291954,60,NA,NA,0.4874361994503338,NA,0.3058500196309384,NA,Bachelor's degree (Healthcare science),2020-06-16_21h31.17.975,0,NA,graphs/graph34b.png,NA,NA,0,NA,NA,NA,NA,NA,NA,NA,2020.1.2,NA,NA,NA,1,Win32,NA,U_graphs_1,6,NA,NA
﻿2020-06-16_21h31.17.975,space,0.36147101164769013,27,0,5ee91448dd71c9291b822a9d,2.4613299999618903,U_graphs_1,NA,NA,NA,Male,0.8256049999617971,NA,NA,NA,1.606069999979809,NA,1,graphs/graph31.png,0.09238000004552305,60,NA,NA,0.3434759848187411,NA,0.5545085721764168,NA,Bachelor's degree (Healthcare science),2020-06-16_21h31.17.975,1,NA,graphs/graph31b.png,NA,NA,1,NA,NA,NA,NA,NA,NA,NA,2020.1.2,NA,NA,NA,1,Win32,NA,U_graphs_1,3,NA,NA
﻿2020-06-16_21h31.17.975,space,0.4530820573223401,27,0,5ee91448dd71c9291b822a9d,2.719779999984894,U_graphs_1,NA,NA,NA,Male,1.308019999996759,NA,NA,NA,2.006269999954384,NA,1,graphs/graph32.png,0.09253000002354383,60,NA,NA,0.4154560921345374,NA,0.5496008375867034,NA,Bachelor's degree (Healthcare science),2020-06-16_21h31.17.975,2,NA,graphs/graph32b.png,NA,NA,2,NA,NA,NA,NA,NA,NA,NA,2020.1.2,NA,NA,NA,1,Win32,NA,U_graphs_1,4,NA,NA
﻿2020-06-16_21h31.17.975,space,0.6673864677398247,27,0,5ee91448dd71c9291b822a9d,3.7879749999847263,U_graphs_1,NA,NA,NA,Male,0.923964999965392,NA,NA,NA,2.713949999946635,NA,1,graphs/graph29.png,0.07143500004895031,60,NA,NA,0.27967543515246707,NA,0.31239366575055627,NA,Bachelor's degree (Healthcare science),2020-06-16_21h31.17.975,3,NA,graphs/graph29b.png,NA,NA,3,NA,NA,NA,NA,NA,NA,NA,2020.1.2,NA,NA,NA,1,Win32,NA,U_graphs_1,1,NA,NA
﻿2020-06-16_21h31.17.975,space,0.6215809449024998,27,0,5ee91448dd71c9291b822a9d,4.990564999985509,U_graphs_1,NA,NA,NA,Male,1.0203999999794178,NA,NA,NA,3.8883700000005774,NA,1,graphs/graph30.png,0.4603050000150688,60,NA,NA,0.304214108101034,NA,0.608493652663264,NA,Bachelor's degree (Healthcare science),2020-06-16_21h31.17.975,4,NA,graphs/graph30b.png,NA,NA,4,NA,NA,NA,NA,NA,NA,NA,2020.1.2,NA,NA,NA,1,Win32,NA,U_graphs_1,2,NA,NA
﻿2020-06-16_21h31.17.975,space,0.28458316974218045,27,0,5ee91448dd71c9291b822a9d,3.332319999986794,U_graphs_1,NA,NA,NA,Male,0.9223149999743327,NA,NA,NA,1.470160000026226,NA,1,graphs/graph33.png,0.8063400000100955,60,NA,NA,0.46944117262138474,NA,0.31566548881036516,NA,Bachelor's degree (Healthcare science),2020-06-16_21h31.17.975,5,NA,graphs/graph33b.png,NA,NA,5,NA,NA,NA,NA,NA,NA,NA,2020.1.2,NA,NA,NA,1,Win32,NA,U_graphs_1,5,NA,NA
﻿2020-06-16_21h31.17.975,space,0.6673864677398247,27,0,5ee91448dd71c9291b822a9d,3.2187900000135414,U_graphs_1,NA,NA,NA,Male,0.9212100000004284,NA,NA,NA,1.6590800000121817,NA,1,graphs/graph36.png,0.35649999999441206,60,NA,NA,0.28621908127208484,NA,0.6951969637482006,NA,Bachelor's degree (Healthcare science),2020-06-16_21h31.17.975,6,NA,graphs/graph36b.png,NA,NA,6,NA,NA,NA,NA,NA,NA,NA,2020.1.2,NA,NA,NA,1,Win32,NA,U_graphs_1,8,NA,NA
﻿2020-06-16_21h31.17.975,space,0.5283339876979454,27,0,5ee91448dd71c9291b822a9d,2.512594999978319,U_graphs_1,NA,NA,NA,Male,0.912914999993518,NA,NA,NA,1.744509999989532,NA,1,graphs/graph28.png,0.18488000001525506,60,NA,NA,0.5430571914670855,NA,0.3352964271692187,NA,Bachelor's degree (Healthcare science),2020-06-16_21h31.17.975,7,NA,graphs/graph28b.png,NA,NA,7,NA,NA,NA,NA,NA,NA,NA,2020.1.2,NA,NA,NA,1,Win32,NA,U_graphs_1,0,NA,NA
﻿2020-06-16_21h31.17.975,space,0.6804737599790605,27,0,5ee91448dd71c9291b822a9d,3.0234199999831617,U_graphs_1,NA,NA,NA,Male,0.9526399999740534,NA,NA,NA,1.5773199999821372,NA,1,graphs/graph35.png,1.0309199999901466,60,NA,NA,0.4465384112027222,NA,0.5185185185185186,NA,Bachelor's degree (Healthcare science),2020-06-16_21h31.17.975,8,NA,graphs/graph35b.png,NA,NA,8,NA,NA,NA,NA,NA,NA,NA,2020.1.2,NA,NA,NA,1,Win32,NA,U_graphs_1,7,NA,NA
﻿2020-06-16_21h31.17.975,NA,NA,27,NA,5ee91448dd71c9291b822a9d,NA,U_graphs_1,NA,NA,NA,Male,NA,1,NA,NA,NA,NA,1,NA,NA,60,NA,NA,NA,NA,NA,0,Bachelor's degree (Healthcare science),2020-06-16_21h31.17.975,NA,NA,NA,lists/performances_block.csv,NA,NA,NA,6,NA,3,NA,NA,NA,2020.1.2,The following graphs show the number of live music performances held per year in different cities. The data are taken from 24 venues in each city.,NA,6,NA,Win32,NA,U_graphs_1,NA,NA,NA
﻿2020-06-16_21h31.17.975,space,0.502159403219474,27,0,5ee91448dd71c9291b822a9d,2.468735000002198,U_graphs_1,NA,NA,NA,Male,0.9191950000240467,NA,NA,NA,1.6859200000180863,NA,1,graphs/graph7.png,0.14287500001955777,60,NA,NA,0.5561444837063212,NA,0.7148279021070542,NA,Bachelor's degree (Healthcare science),2020-06-16_21h31.17.975,0,NA,graphs/graph7b.png,NA,NA,0,NA,NA,NA,NA,NA,NA,NA,2020.1.2,NA,NA,NA,1,Win32,NA,U_graphs_1,6,NA,NA
﻿2020-06-16_21h31.17.975,space,0.35165554246826336,27,0,5ee91448dd71c9291b822a9d,2.3621949999942444,U_graphs_1,NA,NA,NA,Male,0.8865850000292994,NA,NA,NA,1.543825000000652,NA,1,graphs/graph9.png,0.15276000002631918,60,NA,NA,0.6297605025520221,NA,0.4858002879204294,NA,Bachelor's degree (Healthcare science),2020-06-16_21h31.17.975,1,NA,graphs/graph9b.png,NA,NA,1,NA,NA,NA,NA,NA,NA,NA,2020.1.2,NA,NA,NA,1,Win32,NA,U_graphs_1,8,NA,NA
﻿2020-06-16_21h31.17.975,space,0.4416306766130088,27,0,5ee91448dd71c9291b822a9d,2.3917900000233203,U_graphs_1,NA,NA,NA,Male,0.8539199999650009,NA,NA,NA,1.5279999999911524,NA,1,graphs/graph4.png,0.12154999998165295,60,NA,NA,0.3025781965711295,NA,0.2567726737338045,NA,Bachelor's degree (Healthcare science),2020-06-16_21h31.17.975,2,NA,graphs/graph4b.png,NA,NA,2,NA,NA,NA,NA,NA,NA,NA,2020.1.2,NA,NA,NA,1,Win32,NA,U_graphs_1,3,NA,NA
﻿2020-06-16_21h31.17.975,space,0.480892553330716,27,0,5ee91448dd71c9291b822a9d,2.3968750000349246,U_graphs_1,NA,NA,NA,Male,0.9362850000034086,NA,NA,NA,1.6728299999958836,NA,1,graphs/graph8.png,0.39627999998629093,60,NA,NA,0.6886533176285827,NA,0.6870174060986782,NA,Bachelor's degree (Healthcare science),2020-06-16_21h31.17.975,3,NA,graphs/graph8b.png,NA,NA,3,NA,NA,NA,NA,NA,NA,NA,2020.1.2,NA,NA,NA,1,Win32,NA,U_graphs_1,7,NA,NA
﻿2020-06-16_21h31.17.975,space,0.3745583038869259,27,0,5ee91448dd71c9291b822a9d,4.857260000018869,U_graphs_1,NA,NA,NA,Male,1.3877149999607354,NA,NA,NA,2.2017050000140443,NA,1,graphs/graph3.png,2.118270000035409,60,NA,NA,0.5855908912446015,NA,0.32057322340007866,NA,Bachelor's degree (Healthcare science),2020-06-16_21h31.17.975,4,NA,graphs/graph3b.png,NA,NA,4,NA,NA,NA,NA,NA,NA,NA,2020.1.2,NA,NA,NA,1,Win32,NA,U_graphs_1,2,NA,NA
﻿2020-06-16_21h31.17.975,space,0.3303886925795054,27,0,5ee91448dd71c9291b822a9d,2.397999999986496,U_graphs_1,NA,NA,NA,Male,0.8525399999925867,NA,NA,NA,1.5420799999847077,NA,1,graphs/graph2.png,0.33626000001095235,60,NA,NA,0.49234393404004717,NA,0.5348776338175633,NA,Bachelor's degree (Healthcare science),2020-06-16_21h31.17.975,5,NA,graphs/graph2b.png,NA,NA,5,NA,NA,NA,NA,NA,NA,NA,2020.1.2,NA,NA,NA,1,Win32,NA,U_graphs_1,1,NA,NA
﻿2020-06-16_21h31.17.975,space,0.6837455830388693,27,0,5ee91448dd71c9291b822a9d,2.4686250000377186,U_graphs_1,NA,NA,NA,Male,0.8036250000004657,NA,NA,NA,1.7094299999880604,NA,1,graphs/graph6.png,0.2864500000141561,60,NA,NA,0.46616934956157574,NA,0.6297605025520221,NA,Bachelor's degree (Healthcare science),2020-06-16_21h31.17.975,6,NA,graphs/graph6b.png,NA,NA,6,NA,NA,NA,NA,NA,NA,NA,2020.1.2,NA,NA,NA,1,Win32,NA,U_graphs_1,5,NA,NA
﻿2020-06-16_21h31.17.975,space,0.7082842559874363,27,0,5ee91448dd71c9291b822a9d,3.14368999999715,U_graphs_1,NA,NA,NA,Male,0.9079450000426732,NA,NA,NA,2.0754500000039116,NA,1,graphs/graph5.png,0.48447500000474975,60,NA,NA,0.3074859311608429,NA,0.25350085067399564,NA,Bachelor's degree (Healthcare science),2020-06-16_21h31.17.975,7,NA,graphs/graph5b.png,NA,NA,7,NA,NA,NA,NA,NA,NA,NA,2020.1.2,NA,NA,NA,1,Win32,NA,U_graphs_1,4,NA,NA
﻿2020-06-16_21h31.17.975,space,0.5332417222876588,27,0,5ee91448dd71c9291b822a9d,1.7272499999962747,U_graphs_1,NA,NA,NA,Male,0.6274049999774434,NA,NA,NA,1.153969999984838,NA,1,graphs/graph1.png,0.17857499996898696,60,NA,NA,0.6264886794922131,NA,0.7017406098678185,NA,Bachelor's degree (Healthcare science),2020-06-16_21h31.17.975,8,NA,graphs/graph1b.png,NA,NA,8,NA,NA,NA,NA,NA,NA,NA,2020.1.2,NA,NA,NA,1,Win32,NA,U_graphs_1,0,NA,NA
﻿2020-06-16_21h31.17.975,NA,NA,27,NA,5ee91448dd71c9291b822a9d,NA,U_graphs_1,NA,NA,y,Male,NA,NA,NA,NA,NA,NA,1,NA,NA,60,NA,NA,NA,NA,NA,NA,Bachelor's degree (Healthcare science),2020-06-16_21h31.17.975,NA,NA,NA,NA,NA,NA,NA,NA,NA,NA,NA,NA,NA,2020.1.2,NA,NA,NA,NA,Win32,NA,U_graphs_1,NA,NA,2.443794999970123
﻿2020-06-17_15h27.17.403,NA,NA,31,NA,5ee91448dd71c9291b822a9d,NA,U_graphs_1,0,NA,NA,Male,NA,NA,NA,NA,NA,NA,2,NA,NA,60,0,NA,NA,NA,NA,NA,Ba(Hons),2020-06-17_15h27.17.403,NA,5.168589999899268,NA,NA,y,NA,0,NA,NA,NA,NA,0,I confirm that I have read the study description for this study and have had the opportunity to consider the information.,2020.1.2,NA,NA,NA,NA,MacIntel,1,U_graphs_1,NA,1 of 5,NA
﻿2020-06-17_15h27.17.403,NA,NA,31,NA,5ee91448dd71c9291b822a9d,NA,U_graphs_1,0,NA,NA,Male,NA,NA,NA,NA,NA,NA,2,NA,NA,60,1,NA,NA,NA,NA,NA,Ba(Hons),2020-06-17_15h27.17.403,NA,0.45007999998051673,NA,NA,y,NA,1,NA,NA,NA,NA,1,"I understand that my participation in the study is voluntary and that I am free to withdraw at any time without giving a reason and without detriment to myself, but I will not be paid for the study.  I understand that it will not be possible to remove my data from the project once it has been anonymised and forms part of the data set.  
I agree to take part on this basis.",2020.1.2,NA,NA,NA,NA,MacIntel,1,U_graphs_1,NA,2 of 5,NA
﻿2020-06-17_15h27.17.403,NA,NA,31,NA,5ee91448dd71c9291b822a9d,NA,U_graphs_1,0,NA,NA,Male,NA,NA,NA,NA,NA,NA,2,NA,NA,60,2,NA,NA,NA,NA,NA,Ba(Hons),2020-06-17_15h27.17.403,NA,2.922984999953769,NA,NA,y,NA,2,NA,NA,NA,NA,2,"I understand that any data collected may be published in anonymous form in academic books, reports or journals. I understand that it will also be permanently stored in anonymous form in a public online repository, and may be used for future studies.",2020.1.2,NA,NA,NA,NA,MacIntel,1,U_graphs_1,NA,3 of 5,NA
﻿2020-06-17_15h27.17.403,NA,NA,31,NA,5ee91448dd71c9291b822a9d,NA,U_graphs_1,0,NA,NA,Male,NA,NA,NA,NA,NA,NA,2,NA,NA,60,3,NA,NA,NA,NA,NA,Ba(Hons),2020-06-17_15h27.17.403,NA,1.6119050000561401,NA,NA,y,NA,3,NA,NA,NA,NA,3,"I understand that data collected during the study may be looked at by individuals from The University of Manchester or regulatory authorities, where it is relevant to my taking part in this research. I give permission for these individuals to have access to my data.",2020.1.2,NA,NA,NA,NA,MacIntel,1,U_graphs_1,NA,4 of 5,NA
﻿2020-06-17_15h27.17.403,NA,NA,31,NA,5ee91448dd71c9291b822a9d,NA,U_graphs_1,0,NA,NA,Male,NA,NA,NA,NA,NA,NA,2,NA,NA,60,4,NA,NA,NA,NA,NA,Ba(Hons),2020-06-17_15h27.17.403,NA,0.6327300000702962,NA,NA,y,NA,4,NA,NA,NA,NA,4,I agree to take part in this study.,2020.1.2,NA,NA,NA,NA,MacIntel,1,U_graphs_1,NA,5 of 5,NA
﻿2020-06-17_15h27.17.403,NA,NA,31,NA,5ee91448dd71c9291b822a9d,NA,U_graphs_1,NA,tutorial_and_prac_graphs/tut1.png,NA,Male,NA,NA,0,0,NA,"This graph shows the average amount of 
 rainfall per day in Edinburgh for one month",2,NA,NA,60,NA,0,NA,0,NA,NA,Ba(Hons),2020-06-17_15h27.17.403,NA,NA,NA,NA,NA,NA,NA,NA,1,NA,NA,NA,NA,2020.1.2,NA,NA,NA,NA,MacIntel,NA,U_graphs_1,NA,NA,NA
﻿2020-06-17_15h27.17.403,NA,NA,31,NA,5ee91448dd71c9291b822a9d,NA,U_graphs_1,NA,tutorial_and_prac_graphs/tut1.png,NA,Male,NA,NA,0,1,NA,"The average amount of rainfall per day 
 was just over 5 mm",2,NA,NA,60,NA,1,NA,1,NA,NA,Ba(Hons),2020-06-17_15h27.17.403,NA,NA,NA,NA,NA,NA,NA,NA,1,NA,NA,NA,NA,2020.1.2,NA,NA,NA,NA,MacIntel,NA,U_graphs_1,NA,NA,NA
﻿2020-06-17_15h27.17.403,NA,NA,31,NA,5ee91448dd71c9291b822a9d,NA,U_graphs_1,NA,tutorial_and_prac_graphs/tut2.png,NA,Male,NA,NA,0,2,NA,"That average is calculated using the 
 rainfall from all 30 days in that month",2,NA,NA,60,NA,2,NA,2,NA,NA,Ba(Hons),2020-06-17_15h27.17.403,NA,NA,NA,NA,NA,NA,NA,NA,1,NA,NA,NA,NA,2020.1.2,NA,NA,NA,NA,MacIntel,NA,U_graphs_1,NA,NA,NA
﻿2020-06-17_15h27.17.403,NA,NA,31,NA,5ee91448dd71c9291b822a9d,NA,U_graphs_1,NA,tutorial_and_prac_graphs/tut3.png,NA,Male,NA,NA,0,3,NA,"That average is calculated using the 
 rainfall from all 30 days in that month",2,NA,NA,60,NA,3,NA,3,NA,NA,Ba(Hons),2020-06-17_15h27.17.403,NA,NA,NA,NA,NA,NA,NA,NA,1,NA,NA,NA,NA,2020.1.2,NA,NA,NA,NA,MacIntel,NA,U_graphs_1,NA,NA,NA
﻿2020-06-17_15h27.17.403,NA,NA,31,NA,5ee91448dd71c9291b822a9d,NA,U_graphs_1,NA,tutorial_and_prac_graphs/tut4.png,NA,Male,NA,NA,0,4,NA,"That average is calculated using the 
 rainfall from all 30 days in that month",2,NA,NA,60,NA,4,NA,4,NA,NA,Ba(Hons),2020-06-17_15h27.17.403,NA,NA,NA,NA,NA,NA,NA,NA,1,NA,NA,NA,NA,2020.1.2,NA,NA,NA,NA,MacIntel,NA,U_graphs_1,NA,NA,NA
﻿2020-06-17_15h27.17.403,NA,NA,31,NA,5ee91448dd71c9291b822a9d,NA,U_graphs_1,NA,tutorial_and_prac_graphs/tut5.png,NA,Male,NA,NA,0,5,NA,"That average is calculated using the 
 rainfall from all 30 days in that month",2,NA,NA,60,NA,5,NA,5,NA,NA,Ba(Hons),2020-06-17_15h27.17.403,NA,NA,NA,NA,NA,NA,NA,NA,1,NA,NA,NA,NA,2020.1.2,NA,NA,NA,NA,MacIntel,NA,U_graphs_1,NA,NA,NA
﻿2020-06-17_15h27.17.403,NA,NA,31,NA,5ee91448dd71c9291b822a9d,NA,U_graphs_1,NA,tutorial_and_prac_graphs/tut6.png,NA,Male,NA,NA,0,6,NA,"The red circle shows the average for 
 the whole month",2,NA,NA,60,NA,6,NA,6,NA,NA,Ba(Hons),2020-06-17_15h27.17.403,NA,NA,NA,NA,NA,NA,NA,NA,1,NA,NA,NA,NA,2020.1.2,NA,NA,NA,NA,MacIntel,NA,U_graphs_1,NA,NA,NA
﻿2020-06-17_15h27.17.403,space,0.5995645152385158,31,0,5ee91448dd71c9291b822a9d,3.5454299999400973,U_graphs_1,NA,NA,NA,Male,1.4100799999432638,NA,NA,NA,2.5216599999694154,NA,2,graphs/graph41.png,0.9021149999462068,60,NA,NA,0.5040908651722615,NA,0.4888385462676679,NA,Ba(Hons),2020-06-17_15h27.17.403,0,NA,graphs/graph41b.png,NA,NA,0,NA,NA,NA,NA,NA,NA,NA,2020.1.2,NA,NA,NA,1,MacIntel,NA,U_graphs_1,4,NA,NA
﻿2020-06-17_15h27.17.403,space,0.8461379196113075,31,0,5ee91448dd71c9291b822a9d,2.6527149999747053,U_graphs_1,NA,NA,NA,Male,0.9880250000860542,NA,NA,NA,1.9432350000133738,NA,2,graphs/graph42.png,0.18047000002115965,60,NA,NA,0.7298821223498233,NA,0.7516045991607774,NA,Ba(Hons),2020-06-17_15h27.17.403,1,NA,graphs/graph42b.png,NA,NA,1,NA,NA,NA,NA,NA,NA,NA,2020.1.2,NA,NA,NA,1,MacIntel,NA,U_graphs_1,5,NA,NA
﻿2020-06-17_15h27.17.403,space,0.3917344164090105,31,0,5ee91448dd71c9291b822a9d,2.9427350000478327,U_graphs_1,NA,NA,NA,Male,0.9411450000479817,NA,NA,NA,1.6732949999859557,NA,2,graphs/graph44.png,0.5017099999822676,60,NA,NA,0.4802806840768551,NA,0.4470585799469964,NA,Ba(Hons),2020-06-17_15h27.17.403,2,NA,graphs/graph44b.png,NA,NA,2,NA,NA,NA,NA,NA,NA,NA,2020.1.2,NA,NA,NA,1,MacIntel,NA,U_graphs_1,7,NA,NA
﻿2020-06-17_15h27.17.403,space,0.6614623592093639,31,0,5ee91448dd71c9291b822a9d,2.329660000046715,U_graphs_1,NA,NA,NA,Male,0.7844949999125674,NA,NA,NA,1.5586950000142679,NA,2,graphs/graph39.png,0.2522350000217557,60,NA,NA,0.7383450888913428,NA,0.5750037958259717,NA,Ba(Hons),2020-06-17_15h27.17.403,3,NA,graphs/graph39b.png,NA,NA,3,NA,NA,NA,NA,NA,NA,NA,2020.1.2,NA,NA,NA,1,MacIntel,NA,U_graphs_1,2,NA,NA
﻿2020-06-17_15h27.17.403,space,0.4262505521201413,31,0,5ee91448dd71c9291b822a9d,2.885275000007823,U_graphs_1,NA,NA,NA,Male,0.9850449999794364,NA,NA,NA,1.824614999932237,NA,2,graphs/graph45.png,0.3022849999833852,60,NA,NA,0.5260548945450529,NA,0.2871249033789752,NA,Ba(Hons),2020-06-17_15h27.17.403,4,NA,graphs/graph45b.png,NA,NA,4,NA,NA,NA,NA,NA,NA,NA,2020.1.2,NA,NA,NA,1,MacIntel,NA,U_graphs_1,8,NA,NA
﻿2020-06-17_15h27.17.403,space,0.6655687527606007,31,0,5ee91448dd71c9291b822a9d,2.3604049999266863,U_graphs_1,NA,NA,NA,Male,0.8760649999603629,NA,NA,NA,1.5606600000755861,NA,2,graphs/graph40.png,0.1486450000666082,60,NA,NA,0.6370655504637809,NA,0.38339222614840984,NA,Ba(Hons),2020-06-17_15h27.17.403,5,NA,graphs/graph40b.png,NA,NA,5,NA,NA,NA,NA,NA,NA,NA,2020.1.2,NA,NA,NA,1,MacIntel,NA,U_graphs_1,3,NA,NA
﻿2020-06-17_15h27.17.403,space,0.6887232911881626,31,0,5ee91448dd71c9291b822a9d,2.3531600000569597,U_graphs_1,NA,NA,NA,Male,0.8865399999776855,NA,NA,NA,1.6860399999422953,NA,2,graphs/graph38.png,0.4483250000048429,60,NA,NA,0.7701265045273852,NA,0.7660459916077739,NA,Ba(Hons),2020-06-17_15h27.17.403,6,NA,graphs/graph38b.png,NA,NA,6,NA,NA,NA,NA,NA,NA,NA,2020.1.2,NA,NA,NA,1,MacIntel,NA,U_graphs_1,1,NA,NA
﻿2020-06-17_15h27.17.403,space,0.5564818904593639,31,0,5ee91448dd71c9291b822a9d,2.4962349999696016,U_graphs_1,NA,NA,NA,Male,0.9450400000205263,NA,NA,NA,1.7209150000708178,NA,2,graphs/graph43.png,0.6810099999420345,60,NA,NA,0.5020549221510601,NA,0.6977038703621908,NA,Ba(Hons),2020-06-17_15h27.17.403,7,NA,graphs/graph43b.png,NA,NA,7,NA,NA,NA,NA,NA,NA,NA,2020.1.2,NA,NA,NA,1,MacIntel,NA,U_graphs_1,6,NA,NA
﻿2020-06-17_15h27.17.403,space,0.6888699481007067,31,0,5ee91448dd71c9291b822a9d,2.333875000011176,U_graphs_1,NA,NA,NA,Male,0.7257550000213087,NA,NA,NA,1.541230000089854,NA,2,graphs/graph37.png,0.37956500006839633,60,NA,NA,0.6140662958259717,NA,0.737560043065371,NA,Ba(Hons),2020-06-17_15h27.17.403,8,NA,graphs/graph37b.png,NA,NA,8,NA,NA,NA,NA,NA,NA,NA,2020.1.2,NA,NA,NA,1,MacIntel,NA,U_graphs_1,0,NA,NA
﻿2020-06-17_15h27.17.403,NA,NA,31,NA,5ee91448dd71c9291b822a9d,NA,U_graphs_1,NA,NA,NA,Male,NA,1,NA,NA,NA,NA,2,NA,NA,60,NA,NA,NA,NA,NA,0,Ba(Hons),2020-06-17_15h27.17.403,NA,NA,NA,lists/teachers2_block.csv,NA,NA,NA,0,NA,4,NA,NA,NA,2020.1.2,The following graphs show teachers' performance. 24 pupils in each teacher's class were asked to rate their lesson out of 100.,NA,0,NA,MacIntel,NA,U_graphs_1,NA,NA,NA
﻿2020-06-17_15h27.17.403,space,0.5898851590106007,31,0,5ee91448dd71c9291b822a9d,0.8902699999744073,U_graphs_1,NA,NA,NA,Male,2.657664999947883,NA,NA,NA,1.6723650000058115,NA,2,graphs/graph8.png,0.15273500001057982,60,NA,NA,0.8007864261263251,NA,0.7141725789531802,NA,Ba(Hons),2020-06-17_15h27.17.403,0,NA,graphs/graph8b.png,NA,NA,0,NA,NA,NA,NA,NA,NA,NA,2020.1.2,NA,NA,NA,1,MacIntel,NA,U_graphs_1,7,NA,NA
﻿2020-06-17_15h27.17.403,space,0.4698594164090105,31,0,5ee91448dd71c9291b822a9d,2.2741249999962747,U_graphs_1,NA,NA,NA,Male,0.7736700000241399,NA,NA,NA,1.5067350000608712,NA,2,graphs/graph9.png,0.27058500004932284,60,NA,NA,0.661910956824205,NA,0.5275473443021201,NA,Ba(Hons),2020-06-17_15h27.17.403,1,NA,graphs/graph9b.png,NA,NA,1,NA,NA,NA,NA,NA,NA,NA,2020.1.2,NA,NA,NA,1,MacIntel,NA,U_graphs_1,8,NA,NA
﻿2020-06-17_15h27.17.403,space,0.39278689542844525,31,0,5ee91448dd71c9291b822a9d,3.1130450000055134,U_graphs_1,NA,NA,NA,Male,1.248604999971576,NA,NA,NA,2.120424999971874,NA,2,graphs/graph3.png,0.3316849999828264,60,NA,NA,0.6797340851369258,NA,0.42914055598498235,NA,Ba(Hons),2020-06-17_15h27.17.403,2,NA,graphs/graph3b.png,NA,NA,2,NA,NA,NA,NA,NA,NA,NA,2020.1.2,NA,NA,NA,1,MacIntel,NA,U_graphs_1,2,NA,NA
﻿2020-06-17_15h27.17.403,space,0.5671619644434629,31,0,5ee91448dd71c9291b822a9d,3.1773449999745935,U_graphs_1,NA,NA,NA,Male,1.1093000000109896,NA,NA,NA,2.160740000079386,NA,2,graphs/graph1.png,0.33534500002861023,60,NA,NA,0.7117743070892226,NA,0.6794839056978799,NA,Ba(Hons),2020-06-17_15h27.17.403,3,NA,graphs/graph1b.png,NA,NA,3,NA,NA,NA,NA,NA,NA,NA,2020.1.2,NA,NA,NA,1,MacIntel,NA,U_graphs_1,0,NA,NA
﻿2020-06-17_15h27.17.403,space,0.4611290166740283,31,0,5ee91448dd71c9291b822a9d,3.3690499999793246,U_graphs_1,NA,NA,NA,Male,1.6149100000038743,NA,NA,NA,2.495200000004843,NA,2,graphs/graph2.png,0.5389549999963492,60,NA,NA,0.6105637836793286,NA,0.5647205581934629,NA,Ba(Hons),2020-06-17_15h27.17.403,4,NA,graphs/graph2b.png,NA,NA,4,NA,NA,NA,NA,NA,NA,NA,2020.1.2,NA,NA,NA,1,MacIntel,NA,U_graphs_1,1,NA,NA
﻿2020-06-17_15h27.17.403,space,0.5156336268772085,31,0,5ee91448dd71c9291b822a9d,3.161244999966584,U_graphs_1,NA,NA,NA,Male,1.5745899999747053,NA,NA,NA,2.3286999999545515,NA,2,graphs/graph7.png,0.37355499994009733,60,NA,NA,0.6212783651722615,NA,0.7482487439266785,NA,Ba(Hons),2020-06-17_15h27.17.403,5,NA,graphs/graph7b.png,NA,NA,5,NA,NA,NA,NA,NA,NA,NA,2020.1.2,NA,NA,NA,1,MacIntel,NA,U_graphs_1,6,NA,NA
﻿2020-06-17_15h27.17.403,space,0.7593429080167844,31,0,5ee91448dd71c9291b822a9d,2.951784999924712,U_graphs_1,NA,NA,NA,Male,1.5413399999961257,NA,NA,NA,2.241979999933392,NA,2,graphs/graph5.png,0.23497499991208315,60,NA,NA,0.4798579670936396,NA,0.5784890542181979,NA,Ba(Hons),2020-06-17_15h27.17.403,6,NA,graphs/graph5b.png,NA,NA,6,NA,NA,NA,NA,NA,NA,NA,2020.1.2,NA,NA,NA,1,MacIntel,NA,U_graphs_1,4,NA,NA
﻿2020-06-17_15h27.17.403,space,0.7615255079505301,31,0,5ee91448dd71c9291b822a9d,2.744509999989532,U_graphs_1,NA,NA,NA,Male,1.7898450000211596,NA,NA,NA,0.8080049999989569,NA,2,graphs/graph6.png,0.3808849999913946,60,NA,NA,0.59658824260159,NA,0.6862818849381626,NA,Ba(Hons),2020-06-17_15h27.17.403,7,NA,graphs/graph6b.png,NA,NA,7,NA,NA,NA,NA,NA,NA,NA,2020.1.2,NA,NA,NA,1,MacIntel,NA,U_graphs_1,5,NA,NA
﻿2020-06-17_15h27.17.403,space,0.4146215216431095,31,0,5ee91448dd71c9291b822a9d,2.630790000082925,U_graphs_1,NA,NA,NA,Male,0.9630149999866262,NA,NA,NA,1.7782100000185892,NA,2,graphs/graph4.png,0.3129850000841543,60,NA,NA,0.36529303776501765,NA,0.2581731034673145,NA,Ba(Hons),2020-06-17_15h27.17.403,8,NA,graphs/graph4b.png,NA,NA,8,NA,NA,NA,NA,NA,NA,NA,2020.1.2,NA,NA,NA,1,MacIntel,NA,U_graphs_1,3,NA,NA
﻿2020-06-17_15h27.17.403,NA,NA,31,NA,5ee91448dd71c9291b822a9d,NA,U_graphs_1,NA,NA,NA,Male,NA,1,NA,NA,NA,NA,2,NA,NA,60,NA,NA,NA,NA,NA,0,Ba(Hons),2020-06-17_15h27.17.403,NA,NA,NA,lists/marathon_block.csv,NA,NA,NA,1,NA,0,NA,NA,NA,2020.1.2,The following graphs show marathon times for a sample of 24 runners from each country.,NA,1,NA,MacIntel,NA,U_graphs_1,NA,NA,NA
﻿2020-06-17_15h27.17.403,space,0.5191879002871025,31,0,5ee91448dd71c9291b822a9d,1.9211750000249594,U_graphs_1,NA,NA,NA,Male,2.8920299999881536,NA,NA,NA,1.2082550000632182,NA,2,graphs/graph64.png,0.18975499994121492,60,NA,NA,0.4659945754196113,NA,0.36576751601148405,NA,Ba(Hons),2020-06-17_15h27.17.403,0,NA,graphs/graph64b.png,NA,NA,0,NA,NA,NA,NA,NA,NA,NA,2020.1.2,NA,NA,NA,1,MacIntel,NA,U_graphs_1,0,NA,NA
﻿2020-06-17_15h27.17.403,space,0.7277512836793286,31,0,5ee91448dd71c9291b822a9d,2.610910000046715,U_graphs_1,NA,NA,NA,Male,0.9141900000395253,NA,NA,NA,1.7223249999806285,NA,2,graphs/graph66.png,0.47938999999314547,60,NA,NA,0.5685767723056536,NA,0.7614133585468198,NA,Ba(Hons),2020-06-17_15h27.17.403,1,NA,graphs/graph66b.png,NA,NA,1,NA,NA,NA,NA,NA,NA,NA,2020.1.2,NA,NA,NA,1,MacIntel,NA,U_graphs_1,2,NA,NA
﻿2020-06-17_15h27.17.403,space,0.5372784617932862,31,0,5ee91448dd71c9291b822a9d,2.886064999969676,U_graphs_1,NA,NA,NA,Male,1.0561449999222532,NA,NA,NA,1.9088800000026822,NA,2,graphs/graph72.png,0.30041499994695187,60,NA,NA,0.3525683938825088,NA,0.44638568352473496,NA,Ba(Hons),2020-06-17_15h27.17.403,2,NA,graphs/graph72b.png,NA,NA,2,NA,NA,NA,NA,NA,NA,NA,2020.1.2,NA,NA,NA,1,MacIntel,NA,U_graphs_1,8,NA,NA
﻿2020-06-17_15h27.17.403,space,0.587521394655477,31,0,5ee91448dd71c9291b822a9d,2.8932999999960884,U_graphs_1,NA,NA,NA,Male,1.0764000000199303,NA,NA,NA,1.9939850000664592,NA,2,graphs/graph70.png,5.004604999907315,60,NA,NA,0.4233691751325088,NA,0.4859140348939929,NA,Ba(Hons),2020-06-17_15h27.17.403,3,NA,graphs/graph70b.png,NA,NA,3,NA,NA,NA,NA,NA,NA,NA,2020.1.2,NA,NA,NA,1,MacIntel,NA,U_graphs_1,6,NA,NA
﻿2020-06-17_15h27.17.403,space,0.4128788924469964,31,0,5ee91448dd71c9291b822a9d,2.317579999915324,U_graphs_1,NA,NA,NA,Male,0.804909999947995,NA,NA,NA,1.5818750000325963,NA,2,graphs/graph71.png,1.5026099999668077,60,NA,NA,0.32235706989840984,NA,0.3652757840106007,NA,Ba(Hons),2020-06-17_15h27.17.403,4,NA,graphs/graph71b.png,NA,NA,4,NA,NA,NA,NA,NA,NA,NA,2020.1.2,NA,NA,NA,1,MacIntel,NA,U_graphs_1,7,NA,NA
﻿2020-06-17_15h27.17.403,space,0.5209650369920494,31,0,5ee91448dd71c9291b822a9d,2.8045250000432134,U_graphs_1,NA,NA,NA,Male,1.1754350000992417,NA,NA,NA,2.0089249999728054,NA,2,graphs/graph68.png,0.23410999996121973,60,NA,NA,0.37467908016784446,NA,0.46528717148851584,NA,Ba(Hons),2020-06-17_15h27.17.403,5,NA,graphs/graph68b.png,NA,NA,5,NA,NA,NA,NA,NA,NA,NA,2020.1.2,NA,NA,NA,1,MacIntel,NA,U_graphs_1,4,NA,NA
﻿2020-06-17_15h27.17.403,space,0.7354895925353357,31,0,5ee91448dd71c9291b822a9d,2.608810000005178,U_graphs_1,NA,NA,NA,Male,0.8478449999820441,NA,NA,NA,1.744340000092052,NA,2,graphs/graph69.png,0.277849999954924,60,NA,NA,0.665663648409894,NA,0.657209308745583,NA,Ba(Hons),2020-06-17_15h27.17.403,6,NA,graphs/graph69b.png,NA,NA,6,NA,NA,NA,NA,NA,NA,NA,2020.1.2,NA,NA,NA,1,MacIntel,NA,U_graphs_1,5,NA,NA
﻿2020-06-17_15h27.17.403,space,0.6999468584363957,31,0,5ee91448dd71c9291b822a9d,4.7540599999483675,U_graphs_1,NA,NA,NA,Male,2.7556049999548122,NA,NA,NA,3.8085799999535084,NA,2,graphs/graph67.png,1.3157450000289828,60,NA,NA,0.6288527633613075,NA,0.6666902467977032,NA,Ba(Hons),2020-06-17_15h27.17.403,7,NA,graphs/graph67b.png,NA,NA,7,NA,NA,NA,NA,NA,NA,NA,2020.1.2,NA,NA,NA,1,MacIntel,NA,U_graphs_1,3,NA,NA
﻿2020-06-17_15h27.17.403,space,0.5139082514355123,31,0,5ee91448dd71c9291b822a9d,3.0191849999828264,U_graphs_1,NA,NA,NA,Male,1.0736899999901652,NA,NA,NA,1.9551699999719858,NA,2,graphs/graph65.png,0.6740650000283495,60,NA,NA,0.3206920825971731,NA,0.3652067689929328,NA,Ba(Hons),2020-06-17_15h27.17.403,8,NA,graphs/graph65b.png,NA,NA,8,NA,NA,NA,NA,NA,NA,NA,2020.1.2,NA,NA,NA,1,MacIntel,NA,U_graphs_1,1,NA,NA
﻿2020-06-17_15h27.17.403,NA,NA,31,NA,5ee91448dd71c9291b822a9d,NA,U_graphs_1,NA,NA,NA,Male,NA,1,NA,NA,NA,NA,2,NA,NA,60,NA,NA,NA,NA,NA,0,Ba(Hons),2020-06-17_15h27.17.403,NA,NA,NA,lists/expenditure_block.csv,NA,NA,NA,2,NA,7,NA,NA,NA,2020.1.2,The following graphs show how much money different companies invest in sustainability. The data are taken from 24 companies from each country.,NA,2,NA,MacIntel,NA,U_graphs_1,NA,NA,NA
﻿2020-06-17_15h27.17.403,space,0.39584943683745577,31,0,5ee91448dd71c9291b822a9d,3.607949999975972,U_graphs_1,NA,NA,NA,Male,1.7852999999886379,NA,NA,NA,2.740764999995008,NA,2,graphs/graph35.png,0.16767500003334135,60,NA,NA,0.5113115613957597,NA,0.4931692386263251,NA,Ba(Hons),2020-06-17_15h27.17.403,0,NA,graphs/graph35b.png,NA,NA,0,NA,NA,NA,NA,NA,NA,NA,2020.1.2,NA,NA,NA,1,MacIntel,NA,U_graphs_1,7,NA,NA
﻿2020-06-17_15h27.17.403,space,0.6059052699867491,31,0,5ee91448dd71c9291b822a9d,2.6416250000474975,U_graphs_1,NA,NA,NA,Male,0.9742550000082701,NA,NA,NA,1.707304999930784,NA,2,graphs/graph30.png,0.27012500003911555,60,NA,NA,0.37372149679770317,NA,0.6173100016563604,NA,Ba(Hons),2020-06-17_15h27.17.403,1,NA,graphs/graph30b.png,NA,NA,1,NA,NA,NA,NA,NA,NA,NA,2020.1.2,NA,NA,NA,1,MacIntel,NA,U_graphs_1,2,NA,NA
﻿2020-06-17_15h27.17.403,space,0.5393834198321554,31,0,5ee91448dd71c9291b822a9d,2.413494999986142,U_graphs_1,NA,NA,NA,Male,0.9086149999639019,NA,NA,NA,1.7122199999867007,NA,2,graphs/graph28.png,0.43362000002525747,60,NA,NA,0.4836192855565371,NA,0.3402664669832155,NA,Ba(Hons),2020-06-17_15h27.17.403,2,NA,graphs/graph28b.png,NA,NA,2,NA,NA,NA,NA,NA,NA,NA,2020.1.2,NA,NA,NA,1,MacIntel,NA,U_graphs_1,0,NA,NA
﻿2020-06-17_15h27.17.403,space,0.5139945202075972,31,0,5ee91448dd71c9291b822a9d,2.977349999942817,U_graphs_1,NA,NA,NA,Male,1.2193699999479577,NA,NA,NA,2.2546350000193343,NA,2,graphs/graph33.png,0.2896399999735877,60,NA,NA,0.590644324204947,NA,0.3944432558524734,NA,Ba(Hons),2020-06-17_15h27.17.403,3,NA,graphs/graph33b.png,NA,NA,3,NA,NA,NA,NA,NA,NA,NA,2020.1.2,NA,NA,NA,1,MacIntel,NA,U_graphs_1,5,NA,NA
﻿2020-06-17_15h27.17.403,space,0.5750641839664311,31,0,5ee91448dd71c9291b822a9d,2.376185000059195,U_graphs_1,NA,NA,NA,Male,0.8094399999827147,NA,NA,NA,1.6417599999113008,NA,2,graphs/graph29.png,0.1323000000556931,60,NA,NA,0.311392308966431,NA,0.3905266535998233,NA,Ba(Hons),2020-06-17_15h27.17.403,4,NA,graphs/graph29b.png,NA,NA,4,NA,NA,NA,NA,NA,NA,NA,2020.1.2,NA,NA,NA,1,MacIntel,NA,U_graphs_1,1,NA,NA
﻿2020-06-17_15h27.17.403,space,0.446351176015901,31,0,5ee91448dd71c9291b822a9d,2.659734999993816,U_graphs_1,NA,NA,NA,Male,1.1853699999628589,NA,NA,NA,1.8924150000093505,NA,2,graphs/graph32.png,0.17994999990332872,60,NA,NA,0.5124675629416962,NA,0.5500289863074205,NA,Ba(Hons),2020-06-17_15h27.17.403,5,NA,graphs/graph32b.png,NA,NA,5,NA,NA,NA,NA,NA,NA,NA,2020.1.2,NA,NA,NA,1,MacIntel,NA,U_graphs_1,4,NA,NA
﻿2020-06-17_15h27.17.403,space,0.6937958949867491,31,0,5ee91448dd71c9291b822a9d,2.5744399999966845,U_graphs_1,NA,NA,NA,Male,0.789479999919422,NA,NA,NA,1.5766800000565127,NA,2,graphs/graph36.png,0.33762500004377216,60,NA,NA,0.32260724933745577,NA,0.6796909507508834,NA,Ba(Hons),2020-06-17_15h27.17.403,6,NA,graphs/graph36b.png,NA,NA,6,NA,NA,NA,NA,NA,NA,NA,2020.1.2,NA,NA,NA,1,MacIntel,NA,U_graphs_1,8,NA,NA
﻿2020-06-17_15h27.17.403,space,0.4007149955830388,31,0,5ee91448dd71c9291b822a9d,2.8738449999364093,U_graphs_1,NA,NA,NA,Male,0.9065949999494478,NA,NA,NA,1.9088950000004843,NA,2,graphs/graph34.png,4.99954499991145,60,NA,NA,0.41783071996466425,NA,0.3859716624337456,NA,Ba(Hons),2020-06-17_15h27.17.403,7,NA,graphs/graph34b.png,NA,NA,7,NA,NA,NA,NA,NA,NA,NA,2020.1.2,NA,NA,NA,1,MacIntel,NA,U_graphs_1,6,NA,NA
﻿2020-06-17_15h27.17.403,space,0.4067106752429328,31,0,5ee91448dd71c9291b822a9d,2.8286550000775605,U_graphs_1,NA,NA,NA,Male,1.043140000081621,NA,NA,NA,1.842449999996461,NA,2,graphs/graph31.png,0.978984999936074,60,NA,NA,0.38497094467756177,NA,0.5319556785556536,NA,Ba(Hons),2020-06-17_15h27.17.403,8,NA,graphs/graph31b.png,NA,NA,8,NA,NA,NA,NA,NA,NA,NA,2020.1.2,NA,NA,NA,1,MacIntel,NA,U_graphs_1,3,NA,NA
﻿2020-06-17_15h27.17.403,NA,NA,31,NA,5ee91448dd71c9291b822a9d,NA,U_graphs_1,NA,NA,NA,Male,NA,1,NA,NA,NA,NA,2,NA,NA,60,NA,NA,NA,NA,NA,0,Ba(Hons),2020-06-17_15h27.17.403,NA,NA,NA,lists/performances_block.csv,NA,NA,NA,3,NA,3,NA,NA,NA,2020.1.2,The following graphs show the number of live music performances held per year in different cities. The data are taken from 24 venues in each city.,NA,3,NA,MacIntel,NA,U_graphs_1,NA,NA,NA
﻿2020-06-17_15h27.17.403,space,0.6277571499558303,31,0,5ee91448dd71c9291b822a9d,2.9264449999900535,U_graphs_1,NA,NA,NA,Male,1.0112150000641122,NA,NA,NA,1.8260950000258163,NA,2,graphs/graph59.png,0.16750500001944602,60,NA,NA,0.48263582155477025,NA,0.44666174359540634,NA,Ba(Hons),2020-06-17_15h27.17.403,0,NA,graphs/graph59b.png,NA,NA,0,NA,NA,NA,NA,NA,NA,NA,2020.1.2,NA,NA,NA,1,MacIntel,NA,U_graphs_1,4,NA,NA
﻿2020-06-17_15h27.17.403,space,0.3739026612190812,31,0,5ee91448dd71c9291b822a9d,2.7749400000320747,U_graphs_1,NA,NA,NA,Male,0.9749850000953302,NA,NA,NA,1.9810149999102578,NA,2,graphs/graph61.png,0.2141449999762699,60,NA,NA,0.31636139023851584,NA,0.7460230096068905,NA,Ba(Hons),2020-06-17_15h27.17.403,1,NA,graphs/graph61b.png,NA,NA,1,NA,NA,NA,NA,NA,NA,NA,2020.1.2,NA,NA,NA,1,MacIntel,NA,U_graphs_1,6,NA,NA
﻿2020-06-17_15h27.17.403,space,0.6223567248233215,31,0,5ee91448dd71c9291b822a9d,2.6087000000989065,U_graphs_1,NA,NA,NA,Male,0.8882799999555573,NA,NA,NA,1.6971200000261888,NA,2,graphs/graph55.png,0.3342600000323728,60,NA,NA,0.665862066585689,NA,0.762224285004417,NA,Ba(Hons),2020-06-17_15h27.17.403,2,NA,graphs/graph55b.png,NA,NA,2,NA,NA,NA,NA,NA,NA,NA,2020.1.2,NA,NA,NA,1,MacIntel,NA,U_graphs_1,0,NA,NA
﻿2020-06-17_15h27.17.403,space,0.27691930764134276,31,0,5ee91448dd71c9291b822a9d,2.0746050000889227,U_graphs_1,NA,NA,NA,Male,0.6094649999868125,NA,NA,NA,1.3519850000739098,NA,2,graphs/graph62.png,0.16790999996010214,60,NA,NA,0.3319242767226148,NA,0.3354354157464664,NA,Ba(Hons),2020-06-17_15h27.17.403,3,NA,graphs/graph62b.png,NA,NA,3,NA,NA,NA,NA,NA,NA,NA,2020.1.2,NA,NA,NA,1,MacIntel,NA,U_graphs_1,7,NA,NA
﻿2020-06-17_15h27.17.403,space,0.3234268026722614,31,0,5ee91448dd71c9291b822a9d,2.8430100000696257,U_graphs_1,NA,NA,NA,Male,1.074765000026673,NA,NA,NA,1.831624999991618,NA,2,graphs/graph56.png,0.17821000004187226,60,NA,NA,0.41941806537102466,NA,0.5894020538869258,NA,Ba(Hons),2020-06-17_15h27.17.403,4,NA,graphs/graph56b.png,NA,NA,4,NA,NA,NA,NA,NA,NA,NA,2020.1.2,NA,NA,NA,1,MacIntel,NA,U_graphs_1,1,NA,NA
﻿2020-06-17_15h27.17.403,space,0.6450540387588339,31,0,5ee91448dd71c9291b822a9d,3.08698500005994,U_graphs_1,NA,NA,NA,Male,1.3520900000585243,NA,NA,NA,2.123355000047013,NA,2,graphs/graph60.png,0.43472499994095415,60,NA,NA,0.3870327683303887,NA,0.5712165967314488,NA,Ba(Hons),2020-06-17_15h27.17.403,5,NA,graphs/graph60b.png,NA,NA,5,NA,NA,NA,NA,NA,NA,NA,2020.1.2,NA,NA,NA,1,MacIntel,NA,U_graphs_1,5,NA,NA
﻿2020-06-17_15h27.17.403,space,0.23224933745583032,31,0,5ee91448dd71c9291b822a9d,3.7395549999782816,U_graphs_1,NA,NA,NA,Male,1.7523049999726936,NA,NA,NA,2.7970199999399483,NA,2,graphs/graph57.png,0.814295000047423,60,NA,NA,0.3675532795936396,NA,0.2953204367270318,NA,Ba(Hons),2020-06-17_15h27.17.403,6,NA,graphs/graph57b.png,NA,NA,6,NA,NA,NA,NA,NA,NA,NA,2020.1.2,NA,NA,NA,1,MacIntel,NA,U_graphs_1,2,NA,NA
﻿2020-06-17_15h27.17.403,space,0.2592083287323321,31,0,5ee91448dd71c9291b822a9d,2.675425000023097,U_graphs_1,NA,NA,NA,Male,0.8574999999254942,NA,NA,NA,1.808335000067018,NA,2,graphs/graph58.png,0.27191999997012317,60,NA,NA,0.2166088090768551,NA,0.18776915856890453,NA,Ba(Hons),2020-06-17_15h27.17.403,7,NA,graphs/graph58b.png,NA,NA,7,NA,NA,NA,NA,NA,NA,NA,2020.1.2,NA,NA,NA,1,MacIntel,NA,U_graphs_1,3,NA,NA
﻿2020-06-17_15h27.17.403,space,0.5711907160998233,31,0,5ee91448dd71c9291b822a9d,3.503749999916181,U_graphs_1,NA,NA,NA,Male,0.9436149999964982,NA,NA,NA,1.9791999999433756,NA,2,graphs/graph63.png,0.47175000002607703,60,NA,NA,0.5689563549028268,NA,0.5616666436616607,NA,Ba(Hons),2020-06-17_15h27.17.403,8,NA,graphs/graph63b.png,NA,NA,8,NA,NA,NA,NA,NA,NA,NA,2020.1.2,NA,NA,NA,1,MacIntel,NA,U_graphs_1,8,NA,NA
﻿2020-06-17_15h27.17.403,NA,NA,31,NA,5ee91448dd71c9291b822a9d,NA,U_graphs_1,NA,NA,NA,Male,NA,1,NA,NA,NA,NA,2,NA,NA,60,NA,NA,NA,NA,NA,0,Ba(Hons),2020-06-17_15h27.17.403,NA,NA,NA,lists/taxi_block.csv,NA,NA,NA,4,NA,6,NA,NA,NA,2020.1.2,The following graphs show the average trip length for 24 taxi drivers in various cities.,NA,4,NA,MacIntel,NA,U_graphs_1,NA,NA,NA
﻿2020-06-17_15h27.17.403,space,0.7189950033127208,31,0,5ee91448dd71c9291b822a9d,2.54199499997776,U_graphs_1,NA,NA,NA,Male,0.9420350000727922,NA,NA,NA,1.7595300000393763,NA,2,graphs/graph46.png,0.16734500008169562,60,NA,NA,0.6564328897968198,NA,0.6018333839443463,NA,Ba(Hons),2020-06-17_15h27.17.403,0,NA,graphs/graph46b.png,NA,NA,0,NA,NA,NA,NA,NA,NA,NA,2020.1.2,NA,NA,NA,1,MacIntel,NA,U_graphs_1,0,NA,NA
﻿2020-06-17_15h27.17.403,space,0.5137184601369258,31,0,5ee91448dd71c9291b822a9d,2.6578049999661744,U_graphs_1,NA,NA,NA,Male,0.9775950000621378,NA,NA,NA,1.8427099999971688,NA,2,graphs/graph49.png,0.26679499994497746,60,NA,NA,0.43105572272526493,NA,0.4754410059628975,NA,Ba(Hons),2020-06-17_15h27.17.403,1,NA,graphs/graph49b.png,NA,NA,1,NA,NA,NA,NA,NA,NA,NA,2020.1.2,NA,NA,NA,1,MacIntel,NA,U_graphs_1,3,NA,NA
﻿2020-06-17_15h27.17.403,space,0.5972525121466431,31,0,5ee91448dd71c9291b822a9d,2.579564999905415,U_graphs_1,NA,NA,NA,Male,0.9282099999254569,NA,NA,NA,1.7188449999084696,NA,2,graphs/graph54.png,0.24284500000067055,60,NA,NA,0.4120765928666077,NA,0.5088874089001767,NA,Ba(Hons),2020-06-17_15h27.17.403,2,NA,graphs/graph54b.png,NA,NA,2,NA,NA,NA,NA,NA,NA,NA,2020.1.2,NA,NA,NA,1,MacIntel,NA,U_graphs_1,8,NA,NA
﻿2020-06-17_15h27.17.403,space,0.7442976341651943,31,0,5ee91448dd71c9291b822a9d,3.193980000098236,U_graphs_1,NA,NA,NA,Male,1.198960000067018,NA,NA,NA,2.0251200000056997,NA,2,graphs/graph53.png,0.2055199999595061,60,NA,NA,0.30833839443462896,NA,0.2388834060291518,NA,Ba(Hons),2020-06-17_15h27.17.403,3,NA,graphs/graph53b.png,NA,NA,3,NA,NA,NA,NA,NA,NA,NA,2020.1.2,NA,NA,NA,1,MacIntel,NA,U_graphs_1,7,NA,NA
﻿2020-06-17_15h27.17.403,space,0.4482577158789752,31,0,5ee91448dd71c9291b822a9d,3.3594949999824166,U_graphs_1,NA,NA,NA,Male,1.475279999896884,NA,NA,NA,2.363950000028126,NA,2,graphs/graph51.png,0.18321000004652888,60,NA,NA,0.2549811589001767,NA,0.3840996300795052,NA,Ba(Hons),2020-06-17_15h27.17.403,4,NA,graphs/graph51b.png,NA,NA,4,NA,NA,NA,NA,NA,NA,NA,2020.1.2,NA,NA,NA,1,MacIntel,NA,U_graphs_1,5,NA,NA
﻿2020-06-17_15h27.17.403,space,0.6519555405256183,31,0,5ee91448dd71c9291b822a9d,2.6518299999879673,U_graphs_1,NA,NA,NA,Male,1.1078050000360236,NA,NA,NA,1.753400000045076,NA,2,graphs/graph47.png,0.24510499997995794,60,NA,NA,0.3532671709363957,NA,0.46385510987190814,NA,Ba(Hons),2020-06-17_15h27.17.403,5,NA,graphs/graph47b.png,NA,NA,5,NA,NA,NA,NA,NA,NA,NA,2020.1.2,NA,NA,NA,1,MacIntel,NA,U_graphs_1,1,NA,NA
﻿2020-06-17_15h27.17.403,space,0.6246601010379859,31,0,5ee91448dd71c9291b822a9d,2.7409300000872463,U_graphs_1,NA,NA,NA,Male,1.0529000000096858,NA,NA,NA,1.926175000029616,NA,2,graphs/graph52.png,0.18056499992962927,60,NA,NA,0.540668824536219,NA,0.30235134165194344,NA,Ba(Hons),2020-06-17_15h27.17.403,6,NA,graphs/graph52b.png,NA,NA,6,NA,NA,NA,NA,NA,NA,NA,2020.1.2,NA,NA,NA,1,MacIntel,NA,U_graphs_1,6,NA,NA
﻿2020-06-17_15h27.17.403,space,0.613100085578622,31,0,5ee91448dd71c9291b822a9d,2.827210000017658,U_graphs_1,NA,NA,NA,Male,1.045685000019148,NA,NA,NA,1.9276949999621138,NA,2,graphs/graph48.png,3.9838149999268353,60,NA,NA,0.37621466431095407,NA,0.6557772471289752,NA,Ba(Hons),2020-06-17_15h27.17.403,7,NA,graphs/graph48b.png,NA,NA,7,NA,NA,NA,NA,NA,NA,NA,2020.1.2,NA,NA,NA,1,MacIntel,NA,U_graphs_1,2,NA,NA
﻿2020-06-17_15h27.17.403,space,0.2284966458701413,31,0,5ee91448dd71c9291b822a9d,2.3254350000061095,U_graphs_1,NA,NA,NA,Male,0.7917700000107288,NA,NA,NA,1.535425000009127,NA,2,graphs/graph50.png,0.1476349999429658,60,NA,NA,0.6199411992049471,NA,0.5748571389134276,NA,Ba(Hons),2020-06-17_15h27.17.403,8,NA,graphs/graph50b.png,NA,NA,8,NA,NA,NA,NA,NA,NA,NA,2020.1.2,NA,NA,NA,1,MacIntel,NA,U_graphs_1,4,NA,NA
﻿2020-06-17_15h27.17.403,NA,NA,31,NA,5ee91448dd71c9291b822a9d,NA,U_graphs_1,NA,NA,NA,Male,NA,1,NA,NA,NA,NA,2,NA,NA,60,NA,NA,NA,NA,NA,0,Ba(Hons),2020-06-17_15h27.17.403,NA,NA,NA,lists/trains_block.csv,NA,NA,NA,5,NA,5,NA,NA,NA,2020.1.2,"The following graphs show the proportion of delayed trains arriving into English train stations each month, over a 24 month period.",NA,5,NA,MacIntel,NA,U_graphs_1,NA,NA,NA
﻿2020-06-17_15h27.17.403,space,0.6464084584805654,31,0,5ee91448dd71c9291b822a9d,3.271500000031665,U_graphs_1,NA,NA,NA,Male,1.3451849999837577,NA,NA,NA,2.210194999934174,NA,2,graphs/graph15.png,0.8250099999131635,60,NA,NA,0.6061209419169611,NA,0.5933704174028268,NA,Ba(Hons),2020-06-17_15h27.17.403,0,NA,graphs/graph15b.png,NA,NA,0,NA,NA,NA,NA,NA,NA,NA,2020.1.2,NA,NA,NA,1,MacIntel,NA,U_graphs_1,5,NA,NA
﻿2020-06-17_15h27.17.403,space,0.27697969578180204,31,0,5ee91448dd71c9291b822a9d,3.157869999995455,U_graphs_1,NA,NA,NA,Male,1.490639999974519,NA,NA,NA,2.2971050000051036,NA,2,graphs/graph13.png,0.09994500002358109,60,NA,NA,0.3442865917623674,NA,0.6711762229461131,NA,Ba(Hons),2020-06-17_15h27.17.403,1,NA,graphs/graph13b.png,NA,NA,1,NA,NA,NA,NA,NA,NA,NA,2020.1.2,NA,NA,NA,1,MacIntel,NA,U_graphs_1,3,NA,NA
﻿2020-06-17_15h27.17.403,space,0.6943738957597173,31,0,5ee91448dd71c9291b822a9d,3.2244299999438226,U_graphs_1,NA,NA,NA,Male,1.4944350000005215,NA,NA,NA,2.4764049999648705,NA,2,graphs/graph12.png,0.16635499999392778,60,NA,NA,0.3881542623674912,NA,0.7047692827959364,NA,Ba(Hons),2020-06-17_15h27.17.403,2,NA,graphs/graph12b.png,NA,NA,2,NA,NA,NA,NA,NA,NA,NA,2020.1.2,NA,NA,NA,1,MacIntel,NA,U_graphs_1,2,NA,NA
﻿2020-06-17_15h27.17.403,space,0.5971576164973498,31,0,5ee91448dd71c9291b822a9d,2.2912299999734387,U_graphs_1,NA,NA,NA,Male,0.8101500000339001,NA,NA,NA,1.5772499999729916,NA,2,graphs/graph11.png,0.23565499996766448,60,NA,NA,0.41772719743816256,NA,0.42653523906802115,NA,Ba(Hons),2020-06-17_15h27.17.403,3,NA,graphs/graph11b.png,NA,NA,3,NA,NA,NA,NA,NA,NA,NA,2020.1.2,NA,NA,NA,1,MacIntel,NA,U_graphs_1,1,NA,NA
﻿2020-06-17_15h27.17.403,space,0.5328097393992932,31,0,5ee91448dd71c9291b822a9d,2.6778299999423325,U_graphs_1,NA,NA,NA,Male,1.1431749999755993,NA,NA,NA,1.8945650000823662,NA,2,graphs/graph16.png,0.3736450000433251,60,NA,NA,0.4422102749558303,NA,0.3484533734540636,NA,Ba(Hons),2020-06-17_15h27.17.403,4,NA,graphs/graph16b.png,NA,NA,4,NA,NA,NA,NA,NA,NA,NA,2020.1.2,NA,NA,NA,1,MacIntel,NA,U_graphs_1,6,NA,NA
﻿2020-06-17_15h27.17.403,space,0.6667075005521201,31,0,5ee91448dd71c9291b822a9d,3.4631150000495836,U_graphs_1,NA,NA,NA,Male,0.9897900000214577,NA,NA,NA,1.6922199999680743,NA,2,graphs/graph10.png,0.14654999994672835,60,NA,NA,0.5635041685070672,NA,0.4844819732773852,NA,Ba(Hons),2020-06-17_15h27.17.403,5,NA,graphs/graph10b.png,NA,NA,5,NA,NA,NA,NA,NA,NA,NA,2020.1.2,NA,NA,NA,1,MacIntel,NA,U_graphs_1,0,NA,NA
﻿2020-06-17_15h27.17.403,space,0.522966472504417,31,0,5ee91448dd71c9291b822a9d,3.3411850000265986,U_graphs_1,NA,NA,NA,Male,1.7112099999794737,NA,NA,NA,2.441950000007637,NA,2,graphs/graph18.png,0.5371399999130517,60,NA,NA,0.3456927727473498,NA,0.4688155642667844,NA,Ba(Hons),2020-06-17_15h27.17.403,6,NA,graphs/graph18b.png,NA,NA,6,NA,NA,NA,NA,NA,NA,NA,2020.1.2,NA,NA,NA,1,MacIntel,NA,U_graphs_1,8,NA,NA
﻿2020-06-17_15h27.17.403,space,0.588686023078622,31,0,5ee91448dd71c9291b822a9d,2.608765000011772,U_graphs_1,NA,NA,NA,Male,0.875510000041686,NA,NA,NA,1.5793650000123307,NA,2,graphs/graph17.png,0.2004600000800565,60,NA,NA,0.4011032050574205,NA,0.4929104323100706,NA,Ba(Hons),2020-06-17_15h27.17.403,7,NA,graphs/graph17b.png,NA,NA,7,NA,NA,NA,NA,NA,NA,NA,2020.1.2,NA,NA,NA,1,MacIntel,NA,U_graphs_1,7,NA,NA
﻿2020-06-17_15h27.17.403,space,0.27188983822879853,31,0,5ee91448dd71c9291b822a9d,2.901494999998249,U_graphs_1,NA,NA,NA,Male,1.1748199999565259,NA,NA,NA,2.145355000044219,NA,2,graphs/graph14.png,0.3247400000691414,60,NA,NA,0.4964560788427561,NA,0.5475703263030035,NA,Ba(Hons),2020-06-17_15h27.17.403,8,NA,graphs/graph14b.png,NA,NA,8,NA,NA,NA,NA,NA,NA,NA,2020.1.2,NA,NA,NA,1,MacIntel,NA,U_graphs_1,4,NA,NA
﻿2020-06-17_15h27.17.403,NA,NA,31,NA,5ee91448dd71c9291b822a9d,NA,U_graphs_1,NA,NA,NA,Male,NA,1,NA,NA,NA,NA,2,NA,NA,60,NA,NA,NA,NA,NA,0,Ba(Hons),2020-06-17_15h27.17.403,NA,NA,NA,lists/teachers_block.csv,NA,NA,NA,6,NA,1,NA,NA,NA,2020.1.2,The following graphs show how pupils' exam grades changed in one year. The data are taken from 24 pupils from each teacher's class.,NA,6,NA,MacIntel,NA,U_graphs_1,NA,NA,NA
﻿2020-06-17_15h27.17.403,space,0.2571551319567138,31,0,5ee91448dd71c9291b822a9d,2.300195000017993,U_graphs_1,NA,NA,NA,Male,0.7853700000559911,NA,NA,NA,1.5709849999984726,NA,2,graphs/graph19.png,0.3400749999564141,60,NA,NA,0.36726859264575973,NA,0.7162085219743817,NA,Ba(Hons),2020-06-17_15h27.17.403,0,NA,graphs/graph19b.png,NA,NA,0,NA,NA,NA,NA,NA,NA,NA,2020.1.2,NA,NA,NA,1,MacIntel,NA,U_graphs_1,0,NA,NA
﻿2020-06-17_15h27.17.403,space,0.328965257840106,31,0,5ee91448dd71c9291b822a9d,3.309750000014901,U_graphs_1,NA,NA,NA,Male,0.9543800000101328,NA,NA,NA,1.6884550000540912,NA,2,graphs/graph25.png,0.7674149998929352,60,NA,NA,0.3954784811174912,NA,0.6946068214443463,NA,Ba(Hons),2020-06-17_15h27.17.403,1,NA,graphs/graph25b.png,NA,NA,1,NA,NA,NA,NA,NA,NA,NA,2020.1.2,NA,NA,NA,1,MacIntel,NA,U_graphs_1,6,NA,NA
﻿2020-06-17_15h27.17.403,space,0.27749730841431086,31,0,5ee91448dd71c9291b822a9d,2.929954999941401,U_graphs_1,NA,NA,NA,Male,1.176065000006929,NA,NA,NA,2.1539900000207126,NA,2,graphs/graph26.png,0.36667499993927777,60,NA,NA,0.5011232194125441,NA,0.589048351921378,NA,Ba(Hons),2020-06-17_15h27.17.403,2,NA,graphs/graph26b.png,NA,NA,2,NA,NA,NA,NA,NA,NA,NA,2020.1.2,NA,NA,NA,1,MacIntel,NA,U_graphs_1,7,NA,NA
﻿2020-06-17_15h27.17.403,space,0.5242691309628975,31,0,5ee91448dd71c9291b822a9d,2.6232549999840558,U_graphs_1,NA,NA,NA,Male,0.811199999996461,NA,NA,NA,1.6748900000238791,NA,2,graphs/graph22.png,0.35680999991018325,60,NA,NA,0.40153454891784446,NA,0.42376601148409887,NA,Ba(Hons),2020-06-17_15h27.17.403,3,NA,graphs/graph22b.png,NA,NA,3,NA,NA,NA,NA,NA,NA,NA,2020.1.2,NA,NA,NA,1,MacIntel,NA,U_graphs_1,3,NA,NA
﻿2020-06-17_15h27.17.403,space,0.6919756238957597,31,0,5ee91448dd71c9291b822a9d,3.5661449999315664,U_graphs_1,NA,NA,NA,Male,1.2408849999774247,NA,NA,NA,2.8800300000002608,NA,2,graphs/graph24.png,0.21911499998532236,60,NA,NA,0.45232960192137805,NA,0.6117111583480566,NA,Ba(Hons),2020-06-17_15h27.17.403,4,NA,graphs/graph24b.png,NA,NA,4,NA,NA,NA,NA,NA,NA,NA,2020.1.2,NA,NA,NA,1,MacIntel,NA,U_graphs_1,5,NA,NA
﻿2020-06-17_15h27.17.403,space,0.48666457321113077,31,0,5ee91448dd71c9291b822a9d,2.6736800000071526,U_graphs_1,NA,NA,NA,Male,1.1859900000272319,NA,NA,NA,1.918595000053756,NA,2,graphs/graph20.png,0.16736999992281199,60,NA,NA,0.3694598194567138,NA,0.3979630217535335,NA,Ba(Hons),2020-06-17_15h27.17.403,5,NA,graphs/graph20b.png,NA,NA,5,NA,NA,NA,NA,NA,NA,NA,2020.1.2,NA,NA,NA,1,MacIntel,NA,U_graphs_1,1,NA,NA
﻿2020-06-17_15h27.17.403,space,0.45843743098498235,31,0,5ee91448dd71c9291b822a9d,2.574640000006184,U_graphs_1,NA,NA,NA,Male,0.9755600000498816,NA,NA,NA,1.7584849999984726,NA,2,graphs/graph27.png,0.3050499999662861,60,NA,NA,0.43530014631183744,NA,0.3415777523189045,NA,Ba(Hons),2020-06-17_15h27.17.403,6,NA,graphs/graph27b.png,NA,NA,6,NA,NA,NA,NA,NA,NA,NA,2020.1.2,NA,NA,NA,1,MacIntel,NA,U_graphs_1,8,NA,NA
﻿2020-06-17_15h27.17.403,space,0.4140952821333922,31,0,5ee91448dd71c9291b822a9d,2.244384999969043,U_graphs_1,NA,NA,NA,Male,0.8599799999501556,NA,NA,NA,1.5923850000835955,NA,2,graphs/graph23.png,0.2838399999309331,60,NA,NA,0.27735065150176674,NA,0.47015273023409887,NA,Ba(Hons),2020-06-17_15h27.17.403,7,NA,graphs/graph23b.png,NA,NA,7,NA,NA,NA,NA,NA,NA,NA,2020.1.2,NA,NA,NA,1,MacIntel,NA,U_graphs_1,4,NA,NA
﻿2020-06-17_15h27.17.403,space,0.3905956686174912,31,0,5ee91448dd71c9291b822a9d,2.3278550000395626,U_graphs_1,NA,NA,NA,Male,0.974724999978207,NA,NA,NA,1.6760200000135228,NA,2,graphs/graph21.png,0.20295499998610467,60,NA,NA,0.4757084391563604,NA,0.2944232414973498,NA,Ba(Hons),2020-06-17_15h27.17.403,8,NA,graphs/graph21b.png,NA,NA,8,NA,NA,NA,NA,NA,NA,NA,2020.1.2,NA,NA,NA,1,MacIntel,NA,U_graphs_1,2,NA,NA
﻿2020-06-17_15h27.17.403,NA,NA,31,NA,5ee91448dd71c9291b822a9d,NA,U_graphs_1,NA,NA,y,Male,NA,NA,NA,NA,NA,NA,2,NA,NA,60,NA,NA,NA,NA,NA,NA,Ba(Hons),2020-06-17_15h27.17.403,NA,NA,NA,NA,NA,NA,NA,NA,NA,NA,NA,NA,NA,2020.1.2,NA,NA,NA,NA,MacIntel,NA,U_graphs_1,NA,NA,5.166429999982938
﻿2020-06-17_16h27.00.028,NA,NA,18,NA,5ee91448dd71c9291b822a9d,NA,U_graphs_1,0,NA,NA,Male,NA,NA,NA,NA,NA,NA,3,NA,NA,60,0,NA,NA,NA,NA,NA,High School,2020-06-17_16h27.00.028,NA,3.3872950000222772,NA,NA,y,NA,0,NA,NA,NA,NA,0,I confirm that I have read the study description for this study and have had the opportunity to consider the information.,2020.1.2,NA,NA,NA,NA,Win32,1,U_graphs_1,NA,1 of 5,NA
﻿2020-06-17_16h27.00.028,NA,NA,18,NA,5ee91448dd71c9291b822a9d,NA,U_graphs_1,0,NA,NA,Male,NA,NA,NA,NA,NA,NA,3,NA,NA,60,1,NA,NA,NA,NA,NA,High School,2020-06-17_16h27.00.028,NA,1.45691499998793,NA,NA,y,NA,1,NA,NA,NA,NA,1,"I understand that my participation in the study is voluntary and that I am free to withdraw at any time without giving a reason and without detriment to myself, but I will not be paid for the study.  I understand that it will not be possible to remove my data from the project once it has been anonymised and forms part of the data set.  
I agree to take part on this basis.",2020.1.2,NA,NA,NA,NA,Win32,1,U_graphs_1,NA,2 of 5,NA
﻿2020-06-17_16h27.00.028,NA,NA,18,NA,5ee91448dd71c9291b822a9d,NA,U_graphs_1,0,NA,NA,Male,NA,NA,NA,NA,NA,NA,3,NA,NA,60,2,NA,NA,NA,NA,NA,High School,2020-06-17_16h27.00.028,NA,1.4510200000368059,NA,NA,y,NA,2,NA,NA,NA,NA,2,"I understand that any data collected may be published in anonymous form in academic books, reports or journals. I understand that it will also be permanently stored in anonymous form in a public online repository, and may be used for future studies.",2020.1.2,NA,NA,NA,NA,Win32,1,U_graphs_1,NA,3 of 5,NA
﻿2020-06-17_16h27.00.028,NA,NA,18,NA,5ee91448dd71c9291b822a9d,NA,U_graphs_1,0,NA,NA,Male,NA,NA,NA,NA,NA,NA,3,NA,NA,60,3,NA,NA,NA,NA,NA,High School,2020-06-17_16h27.00.028,NA,0.10132499999599531,NA,NA,y,NA,3,NA,NA,NA,NA,3,"I understand that data collected during the study may be looked at by individuals from The University of Manchester or regulatory authorities, where it is relevant to my taking part in this research. I give permission for these individuals to have access to my data.",2020.1.2,NA,NA,NA,NA,Win32,1,U_graphs_1,NA,4 of 5,NA
﻿2020-06-17_16h27.00.028,NA,NA,18,NA,5ee91448dd71c9291b822a9d,NA,U_graphs_1,0,NA,NA,Male,NA,NA,NA,NA,NA,NA,3,NA,NA,60,4,NA,NA,NA,NA,NA,High School,2020-06-17_16h27.00.028,NA,0.4591249999939464,NA,NA,y,NA,4,NA,NA,NA,NA,4,I agree to take part in this study.,2020.1.2,NA,NA,NA,NA,Win32,1,U_graphs_1,NA,5 of 5,NA
﻿2020-06-17_16h27.00.028,NA,NA,18,NA,5ee91448dd71c9291b822a9d,NA,U_graphs_1,NA,tutorial_and_prac_graphs/tut1.png,NA,Male,NA,NA,0,0,NA,"This graph shows the average amount of 
 rainfall per day in Edinburgh for one month",3,NA,NA,60,NA,0,NA,0,NA,NA,High School,2020-06-17_16h27.00.028,NA,NA,NA,NA,NA,NA,NA,NA,1,NA,NA,NA,NA,2020.1.2,NA,NA,NA,NA,Win32,NA,U_graphs_1,NA,NA,NA
﻿2020-06-17_16h27.00.028,NA,NA,18,NA,5ee91448dd71c9291b822a9d,NA,U_graphs_1,NA,tutorial_and_prac_graphs/tut1.png,NA,Male,NA,NA,0,1,NA,"The average amount of rainfall per day 
 was just over 5 mm",3,NA,NA,60,NA,1,NA,1,NA,NA,High School,2020-06-17_16h27.00.028,NA,NA,NA,NA,NA,NA,NA,NA,1,NA,NA,NA,NA,2020.1.2,NA,NA,NA,NA,Win32,NA,U_graphs_1,NA,NA,NA
﻿2020-06-17_16h27.00.028,NA,NA,18,NA,5ee91448dd71c9291b822a9d,NA,U_graphs_1,NA,tutorial_and_prac_graphs/tut2.png,NA,Male,NA,NA,0,2,NA,"That average is calculated using the 
 rainfall from all 30 days in that month",3,NA,NA,60,NA,2,NA,2,NA,NA,High School,2020-06-17_16h27.00.028,NA,NA,NA,NA,NA,NA,NA,NA,1,NA,NA,NA,NA,2020.1.2,NA,NA,NA,NA,Win32,NA,U_graphs_1,NA,NA,NA
﻿2020-06-17_16h27.00.028,NA,NA,18,NA,5ee91448dd71c9291b822a9d,NA,U_graphs_1,NA,tutorial_and_prac_graphs/tut3.png,NA,Male,NA,NA,0,3,NA,"That average is calculated using the 
 rainfall from all 30 days in that month",3,NA,NA,60,NA,3,NA,3,NA,NA,High School,2020-06-17_16h27.00.028,NA,NA,NA,NA,NA,NA,NA,NA,1,NA,NA,NA,NA,2020.1.2,NA,NA,NA,NA,Win32,NA,U_graphs_1,NA,NA,NA
﻿2020-06-17_16h27.00.028,NA,NA,18,NA,5ee91448dd71c9291b822a9d,NA,U_graphs_1,NA,tutorial_and_prac_graphs/tut4.png,NA,Male,NA,NA,0,4,NA,"That average is calculated using the 
 rainfall from all 30 days in that month",3,NA,NA,60,NA,4,NA,4,NA,NA,High School,2020-06-17_16h27.00.028,NA,NA,NA,NA,NA,NA,NA,NA,1,NA,NA,NA,NA,2020.1.2,NA,NA,NA,NA,Win32,NA,U_graphs_1,NA,NA,NA
﻿2020-06-17_16h27.00.028,NA,NA,18,NA,5ee91448dd71c9291b822a9d,NA,U_graphs_1,NA,tutorial_and_prac_graphs/tut5.png,NA,Male,NA,NA,0,5,NA,"That average is calculated using the 
 rainfall from all 30 days in that month",3,NA,NA,60,NA,5,NA,5,NA,NA,High School,2020-06-17_16h27.00.028,NA,NA,NA,NA,NA,NA,NA,NA,1,NA,NA,NA,NA,2020.1.2,NA,NA,NA,NA,Win32,NA,U_graphs_1,NA,NA,NA
﻿2020-06-17_16h27.00.028,NA,NA,18,NA,5ee91448dd71c9291b822a9d,NA,U_graphs_1,NA,tutorial_and_prac_graphs/tut6.png,NA,Male,NA,NA,0,6,NA,"The red circle shows the average for 
 the whole month",3,NA,NA,60,NA,6,NA,6,NA,NA,High School,2020-06-17_16h27.00.028,NA,NA,NA,NA,NA,NA,NA,NA,1,NA,NA,NA,NA,2020.1.2,NA,NA,NA,NA,Win32,NA,U_graphs_1,NA,NA,NA
﻿2020-06-17_16h27.00.028,space,0.4252715737949786,18,0,5ee91448dd71c9291b822a9d,3.664924999990035,U_graphs_1,NA,NA,NA,Male,1.9017149999854155,NA,NA,NA,2.57416000001831,NA,3,graphs/graph18.png,0.5515199999790639,60,NA,NA,0.2567726986958334,NA,0.49725164366773156,NA,High School,2020-06-17_16h27.00.028,0,NA,graphs/graph18b.png,NA,NA,0,NA,NA,NA,NA,NA,NA,NA,2020.1.2,NA,NA,NA,1,Win32,NA,U_graphs_1,8,NA,NA
﻿2020-06-17_16h27.00.028,space,0.5970422844349472,18,0,5ee91448dd71c9291b822a9d,3.55671999999322,U_graphs_1,NA,NA,NA,Male,1.8168799999984913,NA,NA,NA,2.675924999988638,NA,3,graphs/graph17.png,0.40362500003539026,60,NA,NA,0.24204946996466425,NA,0.42363562482203065,NA,High School,2020-06-17_16h27.00.028,1,NA,graphs/graph17b.png,NA,NA,1,NA,NA,NA,NA,NA,NA,NA,2020.1.2,NA,NA,NA,1,Win32,NA,U_graphs_1,7,NA,NA
﻿2020-06-17_16h27.00.028,space,0.3418400483268076,18,0,5ee91448dd71c9291b822a9d,5.082440000027418,U_graphs_1,NA,NA,NA,Male,1.2432499999995343,NA,NA,NA,4.240939999988768,NA,3,graphs/graph13.png,2.6242700000293553,60,NA,NA,0.2682240294811067,NA,0.6902891917154437,NA,High School,2020-06-17_16h27.00.028,2,NA,graphs/graph13b.png,NA,NA,2,NA,NA,NA,NA,NA,NA,NA,2020.1.2,NA,NA,NA,1,Win32,NA,U_graphs_1,3,NA,NA
﻿2020-06-17_16h27.00.028,space,0.6035858931115217,18,0,5ee91448dd71c9291b822a9d,2.7862699999823235,U_graphs_1,NA,NA,NA,Male,1.0174300000071526,NA,NA,NA,2.133655000012368,NA,3,graphs/graph15.png,0.9201149999862537,60,NA,NA,0.587226777812477,NA,0.6722941898485235,NA,High School,2020-06-17_16h27.00.028,3,NA,graphs/graph15b.png,NA,NA,3,NA,NA,NA,NA,NA,NA,NA,2020.1.2,NA,NA,NA,1,Win32,NA,U_graphs_1,5,NA,NA
﻿2020-06-17_16h27.00.028,space,0.5496008251056888,18,0,5ee91448dd71c9291b822a9d,2.9307649999973364,U_graphs_1,NA,NA,NA,Male,1.304550000000745,NA,NA,NA,3.8687800000188872,NA,3,graphs/graph11.png,1.0729699999792501,60,NA,NA,0.4170920161454563,NA,0.3729223923570213,NA,High School,2020-06-17_16h27.00.028,4,NA,graphs/graph11b.png,NA,NA,4,NA,NA,NA,NA,NA,NA,NA,2020.1.2,NA,NA,NA,1,Win32,NA,U_graphs_1,1,NA,NA
﻿2020-06-17_16h27.00.028,space,0.6084936152202205,18,0,5ee91448dd71c9291b822a9d,2.958359999989625,U_graphs_1,NA,NA,NA,Male,1.1887800000258721,NA,NA,NA,2.0751450000097975,NA,3,graphs/graph16.png,0.39191499998560175,60,NA,NA,0.6084936152202205,NA,0.3402041617589321,NA,High School,2020-06-17_16h27.00.028,5,NA,graphs/graph16b.png,NA,NA,5,NA,NA,NA,NA,NA,NA,NA,2020.1.2,NA,NA,NA,1,Win32,NA,U_graphs_1,6,NA,NA
﻿2020-06-17_16h27.00.028,space,0.6199450084105662,18,0,5ee91448dd71c9291b822a9d,2.623540000000503,U_graphs_1,NA,NA,NA,Male,1.0407600000035018,NA,NA,NA,1.943039999983739,NA,3,graphs/graph10.png,0.45855500001925975,60,NA,NA,0.6117654507610439,NA,0.3271168820007109,NA,High School,2020-06-17_16h27.00.028,6,NA,graphs/graph10b.png,NA,NA,6,NA,NA,NA,NA,NA,NA,NA,2020.1.2,NA,NA,NA,1,Win32,NA,U_graphs_1,0,NA,NA
﻿2020-06-17_16h27.00.028,space,0.7099201425553117,18,0,5ee91448dd71c9291b822a9d,2.7081100000068545,U_graphs_1,NA,NA,NA,Male,0.8852199999964796,NA,NA,NA,1.724019999965094,NA,3,graphs/graph12.png,0.35967999999411404,60,NA,NA,0.35656327705797675,NA,0.7033765338787373,NA,High School,2020-06-17_16h27.00.028,7,NA,graphs/graph12b.png,NA,NA,7,NA,NA,NA,NA,NA,NA,NA,2020.1.2,NA,NA,NA,1,Win32,NA,U_graphs_1,2,NA,NA
﻿2020-06-17_16h27.00.028,space,0.2960344755654247,18,0,5ee91448dd71c9291b822a9d,2.6168199999956414,U_graphs_1,NA,NA,NA,Male,1.1682950000395067,NA,NA,NA,1.9417750000138767,NA,3,graphs/graph14.png,0.22283000004244968,60,NA,NA,0.5774113335950792,NA,0.5561444961873356,NA,High School,2020-06-17_16h27.00.028,8,NA,graphs/graph14b.png,NA,NA,8,NA,NA,NA,NA,NA,NA,NA,2020.1.2,NA,NA,NA,1,Win32,NA,U_graphs_1,4,NA,NA
﻿2020-06-17_16h27.00.028,NA,NA,18,NA,5ee91448dd71c9291b822a9d,NA,U_graphs_1,NA,NA,NA,Male,NA,1,NA,NA,NA,NA,3,NA,NA,60,NA,NA,NA,NA,NA,0,High School,2020-06-17_16h27.00.028,NA,NA,NA,lists/teachers_block.csv,NA,NA,NA,0,NA,1,NA,NA,NA,2020.1.2,The following graphs show how pupils' exam grades changed in one year. The data are taken from 24 pupils from each teacher's class.,NA,0,NA,Win32,NA,U_graphs_1,NA,NA,NA
﻿2020-06-17_16h27.00.028,space,0.7328229289360031,18,0,5ee91448dd71c9291b822a9d,3.410840000025928,U_graphs_1,NA,NA,NA,Male,1.1107699999702163,NA,NA,NA,2.356755000015255,NA,3,graphs/graph53.png,0.7703099999926053,60,NA,NA,0.2633162449673354,NA,0.24532124310041525,NA,High School,2020-06-17_16h27.00.028,0,NA,graphs/graph53b.png,NA,NA,0,NA,NA,NA,NA,NA,NA,NA,2020.1.2,NA,NA,NA,1,Win32,NA,U_graphs_1,7,NA,NA
﻿2020-06-17_16h27.00.028,space,0.6575709611173544,18,0,5ee91448dd71c9291b822a9d,3.003175000019837,U_graphs_1,NA,NA,NA,Male,0.9439600000041537,NA,NA,NA,1.740410000027623,NA,3,graphs/graph48.png,0.7258099999744445,60,NA,NA,0.24859314104631114,NA,0.6346682371417354,NA,High School,2020-06-17_16h27.00.028,1,NA,graphs/graph48b.png,NA,NA,1,NA,NA,NA,NA,NA,NA,NA,2020.1.2,NA,NA,NA,1,Win32,NA,U_graphs_1,2,NA,NA
﻿2020-06-17_16h27.00.028,space,0.762269323993269,18,0,5ee91448dd71c9291b822a9d,2.700085000018589,U_graphs_1,NA,NA,NA,Male,1.0546099999919534,NA,NA,NA,1.8273599999956787,NA,3,graphs/graph47.png,0.33783000003313646,60,NA,NA,0.364742834707499,NA,0.3663787212753745,NA,High School,2020-06-17_16h27.00.028,2,NA,graphs/graph47b.png,NA,NA,2,NA,NA,NA,NA,NA,NA,NA,2020.1.2,NA,NA,NA,1,Win32,NA,U_graphs_1,1,NA,NA
﻿2020-06-17_16h27.00.028,space,0.32548093302776293,18,0,5ee91448dd71c9291b822a9d,3.068894999974873,U_graphs_1,NA,NA,NA,Male,1.3914949999889359,NA,NA,NA,2.2462800000212155,NA,3,graphs/graph54.png,0.4444950000033714,60,NA,NA,0.33529643965023315,NA,0.3402041617589321,NA,High School,2020-06-17_16h27.00.028,3,NA,graphs/graph54b.png,NA,NA,3,NA,NA,NA,NA,NA,NA,NA,2020.1.2,NA,NA,NA,1,Win32,NA,U_graphs_1,8,NA,NA
﻿2020-06-17_16h27.00.028,space,0.3958251163326404,18,0,5ee91448dd71c9291b822a9d,2.3676400000113063,U_graphs_1,NA,NA,NA,Male,0.9601050000055693,NA,NA,NA,1.6924899999867193,NA,3,graphs/graph49.png,6.983955000003334,60,NA,NA,0.384373785547367,NA,0.3958251163326404,NA,High School,2020-06-17_16h27.00.028,4,NA,graphs/graph49b.png,NA,NA,4,NA,NA,NA,NA,NA,NA,NA,2020.1.2,NA,NA,NA,1,Win32,NA,U_graphs_1,3,NA,NA
﻿2020-06-17_16h27.00.028,space,0.8048029988087562,18,0,5ee91448dd71c9291b822a9d,4.185705000010785,U_graphs_1,NA,NA,NA,Male,2.341290000011213,NA,NA,NA,3.4892100000288337,NA,3,graphs/graph52.png,0.3769150000298396,60,NA,NA,0.8195262275399252,NA,0.1831566798501325,NA,High School,2020-06-17_16h27.00.028,5,NA,graphs/graph52b.png,NA,NA,5,NA,NA,NA,NA,NA,NA,NA,2020.1.2,NA,NA,NA,1,Win32,NA,U_graphs_1,6,NA,NA
﻿2020-06-17_16h27.00.028,space,0.7524538797758712,18,0,5ee91448dd71c9291b822a9d,2.6824499999638647,U_graphs_1,NA,NA,NA,Male,1.0675100000225939,NA,NA,NA,1.906989999988582,NA,3,graphs/graph46.png,0.33660499996040016,60,NA,NA,0.7573616018845701,NA,0.5021593657764305,NA,High School,2020-06-17_16h27.00.028,6,NA,graphs/graph46b.png,NA,NA,6,NA,NA,NA,NA,NA,NA,NA,2020.1.2,NA,NA,NA,1,Win32,NA,U_graphs_1,0,NA,NA
﻿2020-06-17_16h27.00.028,space,0.2600444718315844,18,0,5ee91448dd71c9291b822a9d,2.4528149999678135,U_graphs_1,NA,NA,NA,Male,1.0907700000097975,NA,NA,NA,1.7789550000452437,NA,3,graphs/graph51.png,0.2876549999928102,60,NA,NA,0.24204946996466425,NA,0.387645558683118,NA,High School,2020-06-17_16h27.00.028,7,NA,graphs/graph51b.png,NA,NA,7,NA,NA,NA,NA,NA,NA,NA,2020.1.2,NA,NA,NA,1,Win32,NA,U_graphs_1,5,NA,NA
﻿2020-06-17_16h27.00.028,space,0.2305980143692461,18,0,5ee91448dd71c9291b822a9d,2.4867249999661,U_graphs_1,NA,NA,NA,Male,0.7391999999526888,NA,NA,NA,1.4972199999610893,NA,3,graphs/graph50.png,0.461124999972526,60,NA,NA,0.6117654507610439,NA,0.6117654507610439,NA,High School,2020-06-17_16h27.00.028,8,NA,graphs/graph50b.png,NA,NA,8,NA,NA,NA,NA,NA,NA,NA,2020.1.2,NA,NA,NA,1,Win32,NA,U_graphs_1,4,NA,NA
﻿2020-06-17_16h27.00.028,NA,NA,18,NA,5ee91448dd71c9291b822a9d,NA,U_graphs_1,NA,NA,NA,Male,NA,1,NA,NA,NA,NA,3,NA,NA,60,NA,NA,NA,NA,NA,0,High School,2020-06-17_16h27.00.028,NA,NA,NA,lists/trains_block.csv,NA,NA,NA,1,NA,5,NA,NA,NA,2020.1.2,"The following graphs show the proportion of delayed trains arriving into English train stations each month, over a 24 month period.",NA,1,NA,Win32,NA,U_graphs_1,NA,NA,NA
﻿2020-06-17_16h27.00.028,space,0.6461196303320811,18,0,5ee91448dd71c9291b822a9d,2.483104999992065,U_graphs_1,NA,NA,NA,Male,1.0414899999741465,NA,NA,NA,1.7515499999863096,NA,3,graphs/graph39.png,0.35301500000059605,60,NA,NA,0.7933516680234828,NA,0.6493914034678321,NA,High School,2020-06-17_16h27.00.028,0,NA,graphs/graph39b.png,NA,NA,0,NA,NA,NA,NA,NA,NA,NA,2020.1.2,NA,NA,NA,1,Win32,NA,U_graphs_1,2,NA,NA
﻿2020-06-17_16h27.00.028,space,0.24041358339678875,18,0,5ee91448dd71c9291b822a9d,3.03396500000963,U_graphs_1,NA,NA,NA,Male,1.0859599999967031,NA,NA,NA,2.040740000025835,NA,3,graphs/graph44.png,0.4208999999682419,60,NA,NA,0.48580025047738584,NA,0.46289752650176674,NA,High School,2020-06-17_16h27.00.028,1,NA,graphs/graph44b.png,NA,NA,1,NA,NA,NA,NA,NA,NA,NA,2020.1.2,NA,NA,NA,1,Win32,NA,U_graphs_1,7,NA,NA
﻿2020-06-17_16h27.00.028,space,0.6935610272562671,18,0,5ee91448dd71c9291b822a9d,2.7580000000307336,U_graphs_1,NA,NA,NA,Male,1.0125649999827147,NA,NA,NA,1.9860150000313297,NA,3,graphs/graph41.png,0.5032849999843165,60,NA,NA,0.5234262655892463,NA,0.5136107589667762,NA,High School,2020-06-17_16h27.00.028,2,NA,graphs/graph41b.png,NA,NA,2,NA,NA,NA,NA,NA,NA,NA,2020.1.2,NA,NA,NA,1,Win32,NA,U_graphs_1,4,NA,NA
﻿2020-06-17_16h27.00.028,space,0.4710770841512891,18,0,5ee91448dd71c9291b822a9d,3.3672749999677762,U_graphs_1,NA,NA,NA,Male,0.8697200000169687,NA,NA,NA,1.8560799999977462,NA,3,graphs/graph43.png,0.5700549999601208,60,NA,NA,0.47598480625998796,NA,0.7540897663437467,NA,High School,2020-06-17_16h27.00.028,3,NA,graphs/graph43b.png,NA,NA,3,NA,NA,NA,NA,NA,NA,NA,2020.1.2,NA,NA,NA,1,Win32,NA,U_graphs_1,6,NA,NA
﻿2020-06-17_16h27.00.028,space,0.6624787456311257,18,0,5ee91448dd71c9291b822a9d,3.448504999978468,U_graphs_1,NA,NA,NA,Male,1.2734550000168383,NA,NA,NA,2.003644999989774,NA,3,graphs/graph40.png,0.8920849999994971,60,NA,NA,0.6575709611173544,NA,0.3631068857345511,NA,High School,2020-06-17_16h27.00.028,4,NA,graphs/graph40b.png,NA,NA,4,NA,NA,NA,NA,NA,NA,NA,2020.1.2,NA,NA,NA,1,Win32,NA,U_graphs_1,3,NA,NA
﻿2020-06-17_16h27.00.028,space,0.4890720860182092,18,0,5ee91448dd71c9291b822a9d,3.7708550000097603,U_graphs_1,NA,NA,NA,Male,0.91890000004787,NA,NA,NA,1.7392749999999069,NA,3,graphs/graph38.png,0.9098999999696389,60,NA,NA,0.7688129950749159,NA,0.7655411595340924,NA,High School,2020-06-17_16h27.00.028,5,NA,graphs/graph38b.png,NA,NA,5,NA,NA,NA,NA,NA,NA,NA,2020.1.2,NA,NA,NA,1,Win32,NA,U_graphs_1,1,NA,NA
﻿2020-06-17_16h27.00.028,space,0.7966234411592338,18,0,5ee91448dd71c9291b822a9d,1.658019999973476,U_graphs_1,NA,NA,NA,Male,0.7251149999792688,NA,NA,NA,1.1903349999920465,NA,3,graphs/graph42.png,0.27057500003138557,60,NA,NA,0.7393665376125775,NA,0.8129825564582784,NA,High School,2020-06-17_16h27.00.028,6,NA,graphs/graph42b.png,NA,NA,6,NA,NA,NA,NA,NA,NA,NA,2020.1.2,NA,NA,NA,1,Win32,NA,U_graphs_1,5,NA,NA
﻿2020-06-17_16h27.00.028,space,0.300942260079196,18,0,5ee91448dd71c9291b822a9d,2.2209900000016205,U_graphs_1,NA,NA,NA,Male,0.8871049999725074,NA,NA,NA,1.611380000016652,NA,3,graphs/graph45.png,0.2565300000132993,60,NA,NA,0.6608427966581778,NA,0.3107577667016662,NA,High School,2020-06-17_16h27.00.028,7,NA,graphs/graph45b.png,NA,NA,7,NA,NA,NA,NA,NA,NA,NA,2020.1.2,NA,NA,NA,1,Win32,NA,U_graphs_1,8,NA,NA
﻿2020-06-17_16h27.00.028,space,0.5348775963745197,18,0,5ee91448dd71c9291b822a9d,6.818885000015143,U_graphs_1,NA,NA,NA,Male,1.912659999972675,NA,NA,NA,5.38701999996556,NA,3,graphs/graph37.png,0.6279450000147335,60,NA,NA,0.5414212674561665,NA,0.7115560915282596,NA,High School,2020-06-17_16h27.00.028,8,NA,graphs/graph37b.png,NA,NA,8,NA,NA,NA,NA,NA,NA,NA,2020.1.2,NA,NA,NA,1,Win32,NA,U_graphs_1,0,NA,NA
﻿2020-06-17_16h27.00.028,NA,NA,18,NA,5ee91448dd71c9291b822a9d,NA,U_graphs_1,NA,NA,NA,Male,NA,1,NA,NA,NA,NA,3,NA,NA,60,NA,NA,NA,NA,NA,0,High School,2020-06-17_16h27.00.028,NA,NA,NA,lists/teachers2_block.csv,NA,NA,NA,2,NA,4,NA,NA,NA,2020.1.2,The following graphs show teachers' performance. 24 pupils in each teacher's class were asked to rate their lesson out of 100.,NA,2,NA,Win32,NA,U_graphs_1,NA,NA,NA
﻿2020-06-17_16h27.00.028,space,0.6379400726825588,18,0,5ee91448dd71c9291b822a9d,2.6408250000094995,U_graphs_1,NA,NA,NA,Male,1.067849999992177,NA,NA,NA,1.7170449999975972,NA,3,graphs/graph60.png,0.34351500001503155,60,NA,NA,0.3336604906772852,NA,0.6248527305192652,NA,High School,2020-06-17_16h27.00.028,0,NA,graphs/graph60b.png,NA,NA,0,NA,NA,NA,NA,NA,NA,NA,2020.1.2,NA,NA,NA,1,Win32,NA,U_graphs_1,5,NA,NA
﻿2020-06-17_16h27.00.028,space,0.30421409562001944,18,0,5ee91448dd71c9291b822a9d,2.4913899999810383,U_graphs_1,NA,NA,NA,Male,0.812450000026729,NA,NA,NA,1.816579999984242,NA,3,graphs/graph56.png,0.24316499999258667,60,NA,NA,0.5659599404047335,NA,0.6052218420844695,NA,High School,2020-06-17_16h27.00.028,1,NA,graphs/graph56b.png,NA,NA,1,NA,NA,NA,NA,NA,NA,NA,2020.1.2,NA,NA,NA,1,Win32,NA,U_graphs_1,1,NA,NA
﻿2020-06-17_16h27.00.028,space,0.44163068909402325,18,0,5ee91448dd71c9291b822a9d,3.0076199999894015,U_graphs_1,NA,NA,NA,Male,0.7265299999853596,NA,NA,NA,1.4218249999685213,NA,3,graphs/graph63.png,1.0182849999982864,60,NA,NA,0.7131919780961351,NA,0.4612615775288189,NA,High School,2020-06-17_16h27.00.028,2,NA,graphs/graph63b.png,NA,NA,2,NA,NA,NA,NA,NA,NA,NA,2020.1.2,NA,NA,NA,1,Win32,NA,U_graphs_1,8,NA,NA
﻿2020-06-17_16h27.00.028,space,0.27803947369850457,18,0,5ee91448dd71c9291b822a9d,2.579420000023674,U_graphs_1,NA,NA,NA,Male,0.8100899999844842,NA,NA,NA,1.8532600000035018,NA,3,graphs/graph62.png,0.29163499997230247,60,NA,NA,0.38928150765606595,NA,0.28621903134802684,NA,High School,2020-06-17_16h27.00.028,3,NA,graphs/graph62b.png,NA,NA,3,NA,NA,NA,NA,NA,NA,NA,2020.1.2,NA,NA,NA,1,Win32,NA,U_graphs_1,7,NA,NA
﻿2020-06-17_16h27.00.028,space,0.21423889907020155,18,0,5ee91448dd71c9291b822a9d,2.1476200000033714,U_graphs_1,NA,NA,NA,Male,0.9158499999903142,NA,NA,NA,1.538925000000745,NA,3,graphs/graph58.png,0.2204049999709241,60,NA,NA,0.20278756828492828,NA,0.1209919917897051,NA,High School,2020-06-17_16h27.00.028,4,NA,graphs/graph58b.png,NA,NA,4,NA,NA,NA,NA,NA,NA,NA,2020.1.2,NA,NA,NA,1,Win32,NA,U_graphs_1,3,NA,NA
﻿2020-06-17_16h27.00.028,space,0.28294725821227584,18,0,5ee91448dd71c9291b822a9d,2.820754999993369,U_graphs_1,NA,NA,NA,Male,0.8179450000170618,NA,NA,NA,2.1683649999904446,NA,3,graphs/graph61.png,0.37192000000504777,60,NA,NA,0.25513668731781314,NA,0.7589974884524455,NA,High School,2020-06-17_16h27.00.028,5,NA,graphs/graph61b.png,NA,NA,5,NA,NA,NA,NA,NA,NA,NA,2020.1.2,NA,NA,NA,1,Win32,NA,U_graphs_1,6,NA,NA
﻿2020-06-17_16h27.00.028,space,0.5774113335950792,18,0,5ee91448dd71c9291b822a9d,2.0815849999780767,U_graphs_1,NA,NA,NA,Male,0.7524499999708496,NA,NA,NA,1.502950000052806,NA,3,graphs/graph55.png,0.29181500000413507,60,NA,NA,0.5675958269726089,NA,0.7508179308029233,NA,High School,2020-06-17_16h27.00.028,6,NA,graphs/graph55b.png,NA,NA,6,NA,NA,NA,NA,NA,NA,NA,2020.1.2,NA,NA,NA,1,Win32,NA,U_graphs_1,0,NA,NA
﻿2020-06-17_16h27.00.028,space,0.6444836813591333,18,0,5ee91448dd71c9291b822a9d,2.6536900000064634,U_graphs_1,NA,NA,NA,Male,0.8709950000047684,NA,NA,NA,1.6907349999528378,NA,3,graphs/graph59.png,0.2702200000057928,60,NA,NA,0.4596256909609434,NA,0.3532914415171533,NA,High School,2020-06-17_16h27.00.028,7,NA,graphs/graph59b.png,NA,NA,7,NA,NA,NA,NA,NA,NA,NA,2020.1.2,NA,NA,NA,1,Win32,NA,U_graphs_1,4,NA,NA
﻿2020-06-17_16h27.00.028,space,0.23550579888301748,18,0,5ee91448dd71c9291b822a9d,2.1862500000279397,U_graphs_1,NA,NA,NA,Male,0.791594999958761,NA,NA,NA,1.4265800000284798,NA,3,graphs/graph57.png,0.17548500001430511,60,NA,NA,0.47434891969211246,NA,0.24041358339678875,NA,High School,2020-06-17_16h27.00.028,8,NA,graphs/graph57b.png,NA,NA,8,NA,NA,NA,NA,NA,NA,NA,2020.1.2,NA,NA,NA,1,Win32,NA,U_graphs_1,2,NA,NA
﻿2020-06-17_16h27.00.028,NA,NA,18,NA,5ee91448dd71c9291b822a9d,NA,U_graphs_1,NA,NA,NA,Male,NA,1,NA,NA,NA,NA,3,NA,NA,60,NA,NA,NA,NA,NA,0,High School,2020-06-17_16h27.00.028,NA,NA,NA,lists/taxi_block.csv,NA,NA,NA,3,NA,6,NA,NA,NA,2020.1.2,The following graphs show the average trip length for 24 taxi drivers in various cities.,NA,3,NA,Win32,NA,U_graphs_1,NA,NA,NA
﻿2020-06-17_16h27.00.028,space,0.5332417098066442,18,0,5ee91448dd71c9291b822a9d,2.0595599999651313,U_graphs_1,NA,NA,NA,Male,0.805869999981951,NA,NA,NA,1.436794999986887,NA,3,graphs/graph22.png,0.21078999998280779,60,NA,NA,0.48416436390951034,NA,0.41054834506380944,NA,High School,2020-06-17_16h27.00.028,0,NA,graphs/graph22b.png,NA,NA,0,NA,NA,NA,NA,NA,NA,NA,2020.1.2,NA,NA,NA,1,Win32,NA,U_graphs_1,3,NA,NA
﻿2020-06-17_16h27.00.028,space,0.6134013997339918,18,0,5ee91448dd71c9291b822a9d,3.2684400000143796,U_graphs_1,NA,NA,NA,Male,1.004125000035856,NA,NA,NA,1.6085050000110641,NA,3,graphs/graph24.png,0.5915649999515153,60,NA,NA,0.4170920161454563,NA,0.6166731728697429,NA,High School,2020-06-17_16h27.00.028,1,NA,graphs/graph24b.png,NA,NA,1,NA,NA,NA,NA,NA,NA,NA,2020.1.2,NA,NA,NA,1,Win32,NA,U_graphs_1,5,NA,NA
